event_name	task	subject	session	run	video_id	class_name	raw_superclass_name	superclass_level0	superclass_level1	superclass_level2	class_id	superclass_id	is_resp	stim_is_sports	resp_is_sports	resp_is_right	resp_time
video_on	action	27	meg	1	UpzW8iMIt_0	Playing badminton	Participating_in_sports&Exercise&Recreation	Sports, Exercise, and Recreation	Participating in Sports, Exercise, or Recreation	Playing racquet sports	268	1	False	True	False	False	0.0
video_on	action	27	meg	1	62VWugDz1MY	Fixing the roof	Exterior_maintenance&Repair&Decoration	Household Activities	Exterior Maintenance, Repair, & Decoration	Exterior repair, improvements, & decoration	311	12	True	False	False	True	0.005098296678625
video_on	action	27	meg	1	MjvEF4lMSB0	Plastering	Interior_maintenance&Repair&Decoration	Household Activities	Interior Maintenance, Repair, & Decoration	Interior arrangement, decoration, & repairs	340	7	True	False	False	True	0.5956735870568082
video_on	action	27	meg	1	ENOOpghxFUs	Chopping wood	Interior_maintenance&Repair&Decoration	Household Activities	Interior Maintenance, Repair, & Decoration	Heating and cooling	110	7	True	False	False	True	0.9795790411299096
video_on	action	27	meg	1	UVSvjodOzmY	Clean and jerk	Participating_in_sports&Exercise&Recreation	Sports, Exercise, and Recreation	Participating in Sports, Exercise, or Recreation	Weightlifting	84	1	True	True	True	True	1.0856766811339185
video_on	action	27	meg	1	wEGNirq6k3g	Smoking a cigarette	Relaxing&Leisure	Socializing, Relaxing, and Leisure	Relaxing and Leisure	Tobacco and drug use	201	3	True	False	False	True	0.668007576954551
video_on	action	27	meg	1	XmW1GSl7xHo	Rope skipping	Participating_in_sports&Exercise&Recreation	Sports, Exercise, and Recreation	Participating in Sports, Exercise, or Recreation	Working out	361	1	True	True	True	True	0.4282276408048346
video_on	action	27	meg	1	qnjDVlUx9jU	Playing pool	Relaxing&Leisure	Socializing, Relaxing, and Leisure	Relaxing and Leisure	Playing games	348	3	True	False	True	False	0.6762066909577698
video_on	action	27	meg	1	5Q7_allrlo8	Kite flying	Relaxing&Leisure	Socializing, Relaxing, and Leisure	Relaxing and Leisure	Playing games	327	3	True	False	False	True	0.7242373609915376
video_on	action	27	meg	1	CXUagaMLwfU	Playing violin	Arts&Entertainment	Socializing, Relaxing, and Leisure	Arts and Entertainment	Playing musical instruments	234	2	True	False	False	True	0.5904457877622917
video_on	action	27	meg	1	_Wu1KA1mZd0	Painting	Interior_maintenance&Repair&Decoration	Household Activities	Interior Maintenance, Repair, & Decoration	Interior arrangement, decoration, & repairs	217	7	True	False	False	True	0.6069197853794321
video_on	action	27	meg	1	p7DdrsDOcNY	Snatch	Participating_in_sports&Exercise&Recreation	Sports, Exercise, and Recreation	Participating in Sports, Exercise, or Recreation	Weightlifting	79	1	True	True	True	True	0.5990325040183961
video_on	action	27	meg	1	b6jP6BTjrS8	Playing water polo	Participating_in_sports&Exercise&Recreation	Sports, Exercise, and Recreation	Participating in Sports, Exercise, or Recreation	Participating in water sports	130	1	True	True	True	True	0.6370615892810747
video_on	action	27	meg	1	yB8hLodbPuw	Cutting the grass	Lawn&Garden&Houseplants	Household Activities	Lawn, Garden, and Houseplants	Lawn, garden, and houseplant care	301	9	True	False	False	True	0.3993213942740112
video_on	action	27	meg	1	B0StVh69HXI	Beach soccer	Participating_in_sports&Exercise&Recreation	Sports, Exercise, and Recreation	Participating in Sports, Exercise, or Recreation	Playing soccer	278	1	True	True	True	True	0.6372961428714916
video_on	action	27	meg	1	LqSbxFebliE	Making a lemonade	Food&Drink_prep.&Presentation&Clean-up	Eating and drinking Activities	Food & Drink Prep., Presentation, & Clean-up	Food and drink preparation	333	5	True	False	False	True	0.4861946916207671
video_on	action	27	meg	1	jIw-QdZF5UU	Shoveling snow	Exterior_maintenance&Repair&Decoration	Household Activities	Exterior Maintenance, Repair, & Decoration	Exterior cleaning	183	12	True	False	False	True	0.5897173733683303
video_on	action	27	meg	1	WpOWGK8sCx8	Skiing	Participating_in_sports&Exercise&Recreation	Sports, Exercise, and Recreation	Participating in Sports, Exercise, or Recreation	Skiing, ice skating, snowboarding	369	1	True	True	True	True	0.5839585833018646
video_on	action	27	meg	1	96Vr71BADVM	Tumbling	Participating_in_sports&Exercise&Recreation	Sports, Exercise, and Recreation	Participating in Sports, Exercise, or Recreation	Doing gymnastics	258	1	True	True	True	True	0.551856430247426
video_on	action	27	meg	1	27nWWA6KcdE	Riding bumper cars	Relaxing&Leisure	Socializing, Relaxing, and Leisure	Relaxing and Leisure	Playing games	356	3	True	False	False	True	0.4453382840147242
video_on	action	27	meg	1	bMhiL2CnFEs	Bungee jumping	Participating_in_sports&Exercise&Recreation	Sports, Exercise, and Recreation	Participating in Sports, Exercise, or Recreation	Playing sports	154	1	True	True	False	False	0.3735506803495809
video_on	action	27	meg	1	hCAy5_x5it0	Using the balance beam	Participating_in_sports&Exercise&Recreation	Sports, Exercise, and Recreation	Participating in Sports, Exercise, or Recreation	Doing gymnastics	180	1	True	True	True	True	0.4771548672579229
video_on	action	27	meg	1	8hodijmBe4I	Table soccer	Relaxing&Leisure	Socializing, Relaxing, and Leisure	Relaxing and Leisure	Playing games	379	3	True	False	True	False	0.9724394937511532
video_on	action	27	meg	1	oQKON271zS4	Brushing teeth	Grooming	Personal Care	Grooming	Washing, dressing and grooming oneself	148	4	True	False	False	True	0.4946256424300372
video_on	action	27	meg	1	B27F8ibZWTA	Capoeira	Participating_in_sports&Exercise&Recreation	Sports, Exercise, and Recreation	Participating in Sports, Exercise, or Recreation	Participating in martial arts	294	1	True	True	True	True	0.4627462700009346
video_on	action	27	meg	1	MfKVo1shPGo	Painting fence	Exterior_maintenance&Repair&Decoration	Household Activities	Exterior Maintenance, Repair, & Decoration	Painting fence	336	12	True	False	False	True	0.6950032828608528
video_on	action	27	meg	1	0uVePfMvDbs	Belly dance	Arts&Entertainment	Socializing, Relaxing, and Leisure	Arts and Entertainment	Dancing	247	2	True	False	False	True	0.4086525241145864
video_on	action	27	meg	1	mhfvd10UsV0	Grooming horse	Animals&Pets	Household Activities	Animals and Pets	Walking / exercising / playing with animals	95	8	True	False	False	True	0.414902156102471
video_on	action	27	meg	1	FiGw4r8sEwg	Playing blackjack	Arts&Entertainment	Socializing, Relaxing, and Leisure	Arts and Entertainment	Attending gambling establishments	343	2	True	False	False	True	0.5354763144860044
video_on	action	27	meg	1	h_SzdOBm1hU	Playing bagpipes	Arts&Entertainment	Socializing, Relaxing, and Leisure	Arts and Entertainment	Playing musical instruments	136	2	True	False	False	True	0.5195088561158627
video_on	action	27	meg	1	IMKcCOyF--A	Cheerleading	Arts&Entertainment	Socializing, Relaxing, and Leisure	Arts and Entertainment	Dancing	140	2	True	False	False	True	0.4077777023194358
video_on	action	27	meg	1	yVrYmD4dpDk	Grooming dog	Animals&Pets	Household Activities	Animals and Pets	Care for animals and pets (not veterinary care)	317	8	True	False	False	True	0.5598457440501079
video_on	action	27	meg	1	nsYE7OOJXlM	Putting on shoes	Grooming	Personal Care	Grooming	Washing, dressing and grooming oneself	352	4	True	False	False	True	0.5280777619918808
video_on	action	27	meg	1	dddHc_wQDsk	Assembling bicycle	Vehicles	Household Activities	Vehicles	Vehicle repair and maintenance (by self)	273	11	True	False	False	True	0.473742519156076
video_on	action	27	meg	1	aXR1O6pI0tQ	Preparing salad	Food&Drink_prep.&Presentation&Clean-up	Eating and drinking Activities	Food & Drink Prep., Presentation, & Clean-up	Food and drink preparation	96	5	True	False	False	True	0.4344425577437505
video_on	action	27	meg	1	noiAV8diGH8	Mooping floor	Housework	Household Activities	Housework	Interior cleaning	335	6	True	False	False	True	0.4101030133897438
video_on	action	27	meg	1	2mEIokp5iTw	Cleaning sink	Interior_maintenance&Repair&Decoration	Household Activities	Interior Maintenance, Repair, & Decoration	Interior arrangement, decoration, & repairs	297	7	True	False	False	True	0.6168145078700036
video_on	action	27	meg	1	Noe7ZkixAbo	Doing motocross	Participating_in_sports&Exercise&Recreation	Sports, Exercise, and Recreation	Participating in Sports, Exercise, or Recreation	Playing sports	243	1	True	True	True	True	0.7041206879075617
video_on	action	27	meg	1	T-ooo54vCj8	Making a cake	Food&Drink_prep.&Presentation&Clean-up	Eating and drinking Activities	Food & Drink Prep., Presentation, & Clean-up	Food and drink preparation	332	5	True	False	False	True	0.55251179181505
video_on	action	27	meg	1	GYc77us-vVY	Ballet	Arts&Entertainment	Socializing, Relaxing, and Leisure	Arts and Entertainment	Attending arts and entertainment	229	2	True	False	True	False	0.5685800750507042
video_on	action	27	meg	1	VnyKvr_pCwM	Doing fencing	Participating_in_sports&Exercise&Recreation	Sports, Exercise, and Recreation	Participating in Sports, Exercise, or Recreation	Fencing	309	1	True	True	True	True	0.5369376711314544
video_on	action	27	meg	1	OUQ78AApr0Q	Putting in contact lenses	Grooming	Personal Care	Grooming	Washing, dressing and grooming oneself	351	4	True	False	False	True	0.6094751220662147
video_on	action	27	meg	1	suzkAv6xPKQ	Fixing bicycle	Vehicles	Household Activities	Vehicles	Vehicle repair and maintenance (by self)	171	11	True	False	False	True	0.5536552785197273
video_on	action	27	meg	1	9oMCs8V-guI	High jump	Participating_in_sports&Exercise&Recreation	Sports, Exercise, and Recreation	Participating in Sports, Exercise, or Recreation	Playing sports	195	1	True	True	True	True	0.5296671119285747
video_on	action	27	meg	1	kdHBIymbhnI	Futsal	Participating_in_sports&Exercise&Recreation	Sports, Exercise, and Recreation	Participating in Sports, Exercise, or Recreation	Playing soccer	315	1	True	True	True	True	0.6599687563721091
video_on	action	27	meg	1	fURuY_vle_Q	Brushing hair	Grooming	Personal Care	Grooming	Washing, dressing and grooming oneself	125	4	True	False	False	True	0.4503279072232544
video_on	action	27	meg	1	FPSxCBWcc9M	Welding	Appliances&Tools&Toys	Household Activities	Appliances, Tools, and Toys	Appliance, tool, and toy set-up, repair, & maintenance (by self)	388	10	True	False	False	True	0.4816913823597133
video_on	action	27	meg	1	BdN25qarPkU	Swinging at the playground	Arts&Entertainment	Socializing, Relaxing, and Leisure	Arts and Entertainment	Park activities	378	2	True	False	False	True	0.8359884383389726
video_on	action	27	meg	1	kvzgR2OvpeI	Running a marathon	Participating_in_sports&Exercise&Recreation	Sports, Exercise, and Recreation	Participating in Sports, Exercise, or Recreation	Running	362	1	True	True	True	True	0.7146170391933993
video_on	action	27	meg	1	gvmqQw5I3oU	Polishing shoes	Housework	Household Activities	Housework	Sewing, repairing, & maintaining textiles	227	6	True	False	False	True	0.6767304369714111
video_on	action	27	meg	1	J7FLifJQ-N4	Doing kickboxing	Participating_in_sports&Exercise&Recreation	Sports, Exercise, and Recreation	Participating in Sports, Exercise, or Recreation	Participating in martial arts	70	1	True	True	True	True	0.4270195537246763
video_on	action	27	meg	1	zctvCZclI6E	Canoeing	Participating_in_sports&Exercise&Recreation	Sports, Exercise, and Recreation	Participating in Sports, Exercise, or Recreation	Boating	292	1	False	True	False	False	0.0
video_on	action	27	meg	1	z6HtE1VLvis	Playing harmonica	Arts&Entertainment	Socializing, Relaxing, and Leisure	Arts and Entertainment	Playing musical instruments	100	2	True	False	True	False	0.0050995042547583
video_on	action	27	meg	1	wVahCLOq4s0	Carving jack-o-lanterns	Interior_maintenance&Repair&Decoration	Household Activities	Interior Maintenance, Repair, & Decoration	Interior arrangement, decoration, & repairs	295	7	True	False	False	True	0.5797586542321369
video_on	action	27	meg	1	mCe9rPgGCYA	Dodgeball	Participating_in_sports&Exercise&Recreation	Sports, Exercise, and Recreation	Participating in Sports, Exercise, or Recreation	Playing sports	161	1	True	True	True	True	0.4496040209196508
video_on	action	27	meg	1	KEOUSea8A6Y	Rollerblading	Participating_in_sports&Exercise&Recreation	Sports, Exercise, and Recreation	Participating in Sports, Exercise, or Recreation	Playing sports	359	1	True	True	True	True	0.5790740111842752
video_on	action	27	meg	1	nuT7cwpQq3w	Doing nails	Grooming	Personal Care	Grooming	Washing, dressing and grooming oneself	167	4	True	False	False	True	0.6832369610201567
video_on	action	27	meg	1	kiffZesMh-I	Playing rubik cube	Relaxing&Leisure	Socializing, Relaxing, and Leisure	Relaxing and Leisure	Playing games	349	3	True	False	False	True	0.5461042813258246
video_on	action	27	meg	1	fQbIdA5PS1o	Longboarding	Participating_in_sports&Exercise&Recreation	Sports, Exercise, and Recreation	Participating in Sports, Exercise, or Recreation	Playing sports	331	1	True	True	True	True	0.4916881371755153
video_on	action	27	meg	1	sqO30W-fUoo	Arm wrestling	Participating_in_sports&Exercise&Recreation	Sports, Exercise, and Recreation	Participating in Sports, Exercise, or Recreation	Wrestling	271	1	True	True	True	True	0.5744442180730402
video_on	action	27	meg	1	VEsXeqMEYKA	Javelin throw	Participating_in_sports&Exercise&Recreation	Sports, Exercise, and Recreation	Participating in Sports, Exercise, or Recreation	Playing sports	116	1	True	True	True	True	0.5982763174688444
video_on	action	27	meg	1	GlwUVXWf-o0	Getting a haircut	Grooming	Personal Care	Grooming	Washing, dressing and grooming	208	4	True	False	False	True	0.5081422113580629
video_on	action	27	meg	1	vza8pdyoJO8	Mixing drinks	Food&Drink_prep.&Presentation&Clean-up	Eating and drinking Activities	Food & Drink Prep., Presentation, & Clean-up	Food and drink preparation	244	5	True	False	False	True	0.7722475038608536
video_on	action	27	meg	1	vRohLfzcBZM	Blow-drying hair	Grooming	Personal Care	Grooming	Washing, dressing and grooming oneself	281	4	True	False	False	True	0.7411173748550937
video_on	action	27	meg	1	hW-DQTMXSJE	Playing flauta	Arts&Entertainment	Socializing, Relaxing, and Leisure	Arts and Entertainment	Playing musical instruments	149	2	True	False	False	True	0.7162918185349554
video_on	action	27	meg	1	Ip3G983bUWk	Sailing	Participating_in_sports&Exercise&Recreation	Sports, Exercise, and Recreation	Participating in Sports, Exercise, or Recreation	Participating in water sports	240	1	True	True	False	False	0.412600390962325
video_on	action	27	meg	1	HDxjRnOedjM	Bathing dog	Animals&Pets	Household Activities	Animals and Pets	Care for animals and pets (not veterinary care)	90	8	True	False	False	True	0.765578875085339
video_on	action	27	meg	1	CSmOOcELgxU	Walking the dog	Animals&Pets	Household Activities	Animals and Pets	Walking / exercising / playing with animals	221	8	False	False	False	True	0.0
video_on	action	27	meg	1	O1DdXPXo5F4	Having an ice cream	Food&Drink_prep.&Presentation&Clean-up	Eating and drinking Activities	Food & Drink Prep., Presentation, & Clean-up	Eating and Drinking	320	5	True	False	False	True	0.0050949760479852
video_on	action	27	meg	1	2pTtY0RLIfo	Springboard diving	Participating_in_sports&Exercise&Recreation	Sports, Exercise, and Recreation	Participating in Sports, Exercise, or Recreation	Participating in water sports	193	1	True	True	True	True	0.8932717517018318
video_on	action	27	meg	1	oaKR2gP8kX4	Rock climbing	Participating_in_sports&Exercise&Recreation	Sports, Exercise, and Recreation	Participating in Sports, Exercise, or Recreation	Climbing, spelunking, caving	188	1	True	True	False	False	0.5095124030485749
video_on	action	27	meg	1	1psjobWHtx4	Using the monkey bar	Arts&Entertainment	Socializing, Relaxing, and Leisure	Arts and Entertainment	Park activities	383	2	True	False	False	True	0.5095567781245336
video_on	action	27	meg	1	e9hBCJGZ5QE	Snowboarding	Participating_in_sports&Exercise&Recreation	Sports, Exercise, and Recreation	Participating in Sports, Exercise, or Recreation	Skiing, ice skating, snowboarding	373	1	True	True	True	True	0.6856126845814288
video_on	action	27	meg	1	9m6UznHbvtY	Hammer throw	Participating_in_sports&Exercise&Recreation	Sports, Exercise, and Recreation	Participating in Sports, Exercise, or Recreation	Playing sports	224	1	True	True	True	True	0.5598735160892829
video_on	action	27	meg	1	1Ou1XmMd1Og	Kayaking	Participating_in_sports&Exercise&Recreation	Sports, Exercise, and Recreation	Participating in Sports, Exercise, or Recreation	Participating in water sports	254	1	True	True	True	True	0.6322301463223994
video_on	action	27	meg	1	SwkNlnu7-hc	Rock-paper-scissors	Relaxing&Leisure	Socializing, Relaxing, and Leisure	Relaxing and Leisure	Playing games	358	3	True	False	False	True	0.7815451258793473
video_on	action	27	meg	1	jGbV3Pld1WY	Paintball	Participating_in_sports&Exercise&Recreation	Sports, Exercise, and Recreation	Participating in Sports, Exercise, or Recreation	Playing sports	141	1	True	True	True	True	0.7605433675926179
video_on	action	27	meg	1	3WYyowAvb5U	Swimming	Participating_in_sports&Exercise&Recreation	Sports, Exercise, and Recreation	Participating in Sports, Exercise, or Recreation	Participating in water sports	377	1	True	True	True	True	0.7046139448648319
video_on	action	27	meg	1	qvc75esPmzA	Baton twirling	Participating_in_sports&Exercise&Recreation	Sports, Exercise, and Recreation	Participating in Sports, Exercise, or Recreation	Playing sports	277	1	True	True	False	False	0.6968842401402071
video_on	action	27	meg	1	E_jsWfYfTDY	Camel ride	Participating_in_sports&Exercise&Recreation	Sports, Exercise, and Recreation	Participating in Sports, Exercise, or Recreation	Playing sports	291	1	True	True	False	False	0.7019647264387459
video_on	action	27	meg	1	dp7_XVQm1Vk	Mowing the lawn	Lawn&Garden&Houseplants	Household Activities	Lawn, Garden, and Houseplants	Lawn, garden, and houseplant care	218	9	True	False	False	True	0.5178615468321368
video_on	action	27	meg	1	ydCHpml7aMM	Vacuuming floor	Housework	Household Activities	Housework	Interior cleaning	160	6	True	False	False	True	0.6631257217377424
video_on	action	27	meg	1	tY8a9Ap1DXU	Hopscotch	Relaxing&Leisure	Socializing, Relaxing, and Leisure	Relaxing and Leisure	Playing games	241	3	False	False	False	True	0.0
video_on	action	27	meg	1	GW9gT3fS5sA	Triple jump	Participating_in_sports&Exercise&Recreation	Sports, Exercise, and Recreation	Participating in Sports, Exercise, or Recreation	Playing sports	155	1	True	True	False	False	0.0050973910838365
video_on	action	27	meg	1	4zG8hK14p68	Playing lacrosse	Participating_in_sports&Exercise&Recreation	Sports, Exercise, and Recreation	Participating in Sports, Exercise, or Recreation	Playing racquet sports	209	1	True	True	False	False	0.6154446180444211
video_on	action	27	meg	1	PxvcDaAPyJg	Ping-pong	Participating_in_sports&Exercise&Recreation	Sports, Exercise, and Recreation	Participating in Sports, Exercise, or Recreation	Playing racquet sports	119	1	True	True	True	True	0.6717390024568886
video_on	action	27	meg	1	bZYT1OPUCPs	Bullfighting	Participating_in_sports&Exercise&Recreation	Sports, Exercise, and Recreation	Participating in Sports, Exercise, or Recreation	Participating in rodeo competitions	288	1	True	True	True	True	0.7839057559613138
video_on	action	27	meg	1	TCK2fFIvmnI	Trimming branches or hedges	Lawn&Garden&Houseplants	Household Activities	Lawn, Garden, and Houseplants	Lawn, garden, and houseplant care	381	9	True	False	False	True	0.4801150127314031
video_on	action	27	meg	1	S7UXJIM8QpU	Baking cookies	Food&Drink_prep.&Presentation&Clean-up	Eating and drinking Activities	Food & Drink Prep., Presentation, & Clean-up	Food and drink preparation	276	5	True	False	False	True	0.6150168670574203
video_on	action	27	meg	1	REEoNTjPKh0	Doing step aerobics	Participating_in_sports&Exercise&Recreation	Sports, Exercise, and Recreation	Participating in Sports, Exercise, or Recreation	Doing aerobics	230	1	False	True	False	False	0.0
video_on	action	27	eeg	1	WK2nhbblsf8	Playing guitarra	Arts&Entertainment	Socializing, Relaxing, and Leisure	Arts and Entertainment	Playing musical instruments	251	2	True	False	False	True	0.0050680999993346
video_on	action	27	eeg	1	GpWDd4UFpDk	Surfing	Participating_in_sports&Exercise&Recreation	Sports, Exercise, and Recreation	Participating in Sports, Exercise, or Recreation	Participating in water sports	376	1	True	True	True	True	0.0050803999984054
video_on	action	27	eeg	1	ZbuTOriD3ss	Futsal	Participating_in_sports&Exercise&Recreation	Sports, Exercise, and Recreation	Participating in Sports, Exercise, or Recreation	Playing soccer	315	1	True	True	True	True	0.5752217000008386
video_on	action	27	eeg	1	W7mcYclHfMI	Hammer throw	Participating_in_sports&Exercise&Recreation	Sports, Exercise, and Recreation	Participating in Sports, Exercise, or Recreation	Playing sports	224	1	True	True	True	True	0.0051049000030616
video_on	action	27	eeg	1	m1WUBNpGsZo	Arm wrestling	Participating_in_sports&Exercise&Recreation	Sports, Exercise, and Recreation	Participating in Sports, Exercise, or Recreation	Wrestling	271	1	True	True	True	True	0.0050797000003512
video_on	action	27	eeg	1	4_2j81MRpwQ	Playing violin	Arts&Entertainment	Socializing, Relaxing, and Leisure	Arts and Entertainment	Playing musical instruments	234	2	True	False	False	True	0.0050781999998434
video_on	action	27	eeg	1	UOMldYt_pX8	Playing kickball	Participating_in_sports&Exercise&Recreation	Sports, Exercise, and Recreation	Participating in Sports, Exercise, or Recreation	Playing sports	257	1	True	True	True	True	0.4993079999985639
video_on	action	27	eeg	1	aHNpu0N1PCc	Playing bagpipes	Arts&Entertainment	Socializing, Relaxing, and Leisure	Arts and Entertainment	Playing musical instruments	136	2	True	False	False	True	0.6248169999998936
video_on	action	27	eeg	1	3KcpGbS233Q	Skiing	Participating_in_sports&Exercise&Recreation	Sports, Exercise, and Recreation	Participating in Sports, Exercise, or Recreation	Skiing, ice skating, snowboarding	369	1	True	True	True	True	0.723239700000704
video_on	action	27	eeg	1	txdQr4ZE9Zc	Hurling	Participating_in_sports&Exercise&Recreation	Sports, Exercise, and Recreation	Participating in Sports, Exercise, or Recreation	Playing sports	323	1	True	True	True	True	0.6146621999978379
video_on	action	27	eeg	1	4TsQhW2a0jE	Rollerblading	Participating_in_sports&Exercise&Recreation	Sports, Exercise, and Recreation	Participating in Sports, Exercise, or Recreation	Playing sports	359	1	True	True	True	True	0.4126814999981434
video_on	action	27	eeg	1	fio7NfQITBM	Fixing the roof	Exterior_maintenance&Repair&Decoration	Household Activities	Exterior Maintenance, Repair, & Decoration	Exterior repair, improvements, & decoration	311	12	True	False	False	True	0.0050722999985737
video_on	action	27	eeg	1	kCyrHG8W9fs	Spread mulch	Lawn&Garden&Houseplants	Household Activities	Lawn, Garden, and Houseplants	Lawn, garden, and houseplant care	374	9	True	False	False	True	0.5266846999984409
video_on	action	27	eeg	1	EdUXMn6k3vo	Playing saxophone	Arts&Entertainment	Socializing, Relaxing, and Leisure	Arts and Entertainment	Playing musical instruments	109	2	True	False	False	True	0.7194376999977976
video_on	action	27	eeg	1	umGfiv9aXco	Canoeing	Participating_in_sports&Exercise&Recreation	Sports, Exercise, and Recreation	Participating in Sports, Exercise, or Recreation	Boating	292	1	True	True	False	False	0.8812460000008286
video_on	action	27	eeg	1	bFZNVwm0wZk	Vacuuming floor	Housework	Household Activities	Housework	Interior cleaning	160	6	True	False	False	True	0.5012279000002309
video_on	action	27	eeg	1	XxJ7Yd7yDRA	Javelin throw	Participating_in_sports&Exercise&Recreation	Sports, Exercise, and Recreation	Participating in Sports, Exercise, or Recreation	Playing sports	116	1	True	True	True	True	0.9350085000005492
video_on	action	27	eeg	1	w3TvUZ0RWN0	Dodgeball	Participating_in_sports&Exercise&Recreation	Sports, Exercise, and Recreation	Participating in Sports, Exercise, or Recreation	Playing sports	161	1	True	True	True	True	0.8611644000011438
video_on	action	27	eeg	1	8PnL_DOc758	Croquet	Participating_in_sports&Exercise&Recreation	Sports, Exercise, and Recreation	Participating in Sports, Exercise, or Recreation	Playing sports	299	1	True	True	True	True	0.5177392999976291
video_on	action	27	eeg	1	RJkMdp5ZV8E	Longboarding	Participating_in_sports&Exercise&Recreation	Sports, Exercise, and Recreation	Participating in Sports, Exercise, or Recreation	Playing sports	331	1	True	True	True	True	0.6196325000018987
video_on	action	27	eeg	1	lJM_oM7HDO0	Tai chi	Participating_in_sports&Exercise&Recreation	Sports, Exercise, and Recreation	Participating in Sports, Exercise, or Recreation	Participating in martial arts	263	1	True	True	True	True	0.7602398000017274
video_on	action	27	eeg	1	XgNMnQFBQaE	Walking the dog	Animals&Pets	Household Activities	Animals and Pets	Walking / exercising / playing with animals	221	8	False	False	False	True	0.0
video_on	action	27	eeg	1	2SqHjqJqVJs	Getting a haircut	Grooming	Personal Care	Grooming	Washing, dressing and grooming	208	4	True	False	False	True	0.0050827999984903
video_on	action	27	eeg	1	kesnehl1V1c	Swinging at the playground	Arts&Entertainment	Socializing, Relaxing, and Leisure	Arts and Entertainment	Park activities	378	2	True	False	False	True	0.978469400000904
video_on	action	27	eeg	1	jyNlwUNbVK8	Snow tubing	Participating_in_sports&Exercise&Recreation	Sports, Exercise, and Recreation	Participating in Sports, Exercise, or Recreation	Skiing, ice skating, snowboarding	372	1	True	True	True	True	0.8119481000030646
video_on	action	27	eeg	1	wf7sYzy6C1M	Laying tile	Interior_maintenance&Repair&Decoration	Household Activities	Interior Maintenance, Repair, & Decoration	Interior arrangement, decoration, & repairs	330	7	True	False	False	True	0.9759051000000908
video_on	action	27	eeg	1	KrNKXZxWgho	Doing karate	Participating_in_sports&Exercise&Recreation	Sports, Exercise, and Recreation	Participating in Sports, Exercise, or Recreation	Participating in martial arts	99	1	True	True	True	True	0.9751350000005914
video_on	action	27	eeg	1	7BcBK2GcjGc	Spinning	Participating_in_sports&Exercise&Recreation	Sports, Exercise, and Recreation	Participating in Sports, Exercise, or Recreation	Using cardiovascular equipment	117	1	True	True	True	True	0.5890236000013829
video_on	action	27	eeg	1	FzJH6SD2Tfs	Playing field hockey	Participating_in_sports&Exercise&Recreation	Sports, Exercise, and Recreation	Participating in Sports, Exercise, or Recreation	Playing hockey	94	1	True	True	True	True	0.9689365000012912
video_on	action	27	eeg	1	vua2-PCYsEY	Archery	Participating_in_sports&Exercise&Recreation	Sports, Exercise, and Recreation	Participating in Sports, Exercise, or Recreation	Playing sports	250	1	True	True	True	True	0.7679984000023978
video_on	action	27	eeg	1	ZXnn755C9AM	Blow-drying hair	Grooming	Personal Care	Grooming	Washing, dressing and grooming oneself	281	4	True	False	False	True	0.2485902999978861
video_on	action	27	eeg	1	o3VADKuIneg	Painting furniture	Interior_maintenance&Repair&Decoration	Household Activities	Interior Maintenance, Repair, & Decoration	Building and repairing furniture	337	7	True	False	False	True	0.5812753999998677
video_on	action	27	eeg	1	X2xQOidJ4xM	Baton twirling	Participating_in_sports&Exercise&Recreation	Sports, Exercise, and Recreation	Participating in Sports, Exercise, or Recreation	Playing sports	277	1	True	True	False	False	0.8566578000027221
video_on	action	27	eeg	1	6P-BW85y5Gc	Shot put	Participating_in_sports&Exercise&Recreation	Sports, Exercise, and Recreation	Participating in Sports, Exercise, or Recreation	Playing sports	169	1	True	True	True	True	0.7418068000006315
video_on	action	27	eeg	1	YAPucHDlu2I	Rope skipping	Participating_in_sports&Exercise&Recreation	Sports, Exercise, and Recreation	Participating in Sports, Exercise, or Recreation	Working out	361	1	True	True	True	True	0.8851428999987547
video_on	action	27	eeg	1	eifY17JjZIU	Using the rowing machine	Participating_in_sports&Exercise&Recreation	Sports, Exercise, and Recreation	Participating in Sports, Exercise, or Recreation	Using cardiovascular equipment	384	1	True	True	True	True	0.6080765999977302
video_on	action	27	eeg	1	FamY0Bs6PhQ	Making an omelette	Food&Drink_prep.&Presentation&Clean-up	Eating and drinking Activities	Food & Drink Prep., Presentation, & Clean-up	Food and drink preparation	334	5	True	False	False	True	0.7638105000005453
video_on	action	27	eeg	1	P620i815viQ	Starting a campfire	Participating_in_sports&Exercise&Recreation	Sports, Exercise, and Recreation	Participating in Sports, Exercise, or Recreation	Playing sports	153	1	True	True	True	True	0.7360724999998638
video_on	action	27	eeg	1	uOoG2rdc-Mw	Plastering	Interior_maintenance&Repair&Decoration	Household Activities	Interior Maintenance, Repair, & Decoration	Interior arrangement, decoration, & repairs	340	7	True	False	False	True	0.7218562000016391
video_on	action	27	eeg	1	QdvC8Xt-ym0	Playing polo	Participating_in_sports&Exercise&Recreation	Sports, Exercise, and Recreation	Participating in Sports, Exercise, or Recreation	Participating in equestrian sports	75	1	True	True	True	True	0.5238209999988612
video_on	action	27	eeg	1	JVFTdhYeM_o	Using the monkey bar	Arts&Entertainment	Socializing, Relaxing, and Leisure	Arts and Entertainment	Park activities	383	2	True	False	True	False	0.3508155999988958
video_on	action	27	eeg	1	XjKUQzWI7n4	Decorating the Christmas tree	Interior_maintenance&Repair&Decoration	Household Activities	Interior Maintenance, Repair, & Decoration	Interior arrangement, decoration, & repairs	302	7	True	False	False	True	0.8044488999985333
video_on	action	27	eeg	1	aiLiSaJtONQ	Brushing hair	Grooming	Personal Care	Grooming	Washing, dressing and grooming oneself	125	4	True	False	False	True	0.8468111000001954
video_on	action	27	eeg	1	MbIwgB8ifq4	Playing lacrosse	Participating_in_sports&Exercise&Recreation	Sports, Exercise, and Recreation	Participating in Sports, Exercise, or Recreation	Playing racquet sports	209	1	True	True	True	True	0.97179049999977
video_on	action	27	eeg	1	mmJroQr6lMI	Playing harmonica	Arts&Entertainment	Socializing, Relaxing, and Leisure	Arts and Entertainment	Playing musical instruments	100	2	True	False	True	False	1.1728967999988529
video_on	action	27	eeg	1	HNoj5HKwtmc	Playing drums	Arts&Entertainment	Socializing, Relaxing, and Leisure	Arts and Entertainment	Playing musical instruments	346	2	True	False	False	True	0.0050690999996731
video_on	action	27	eeg	1	UavdtMyGwtY	Braiding hair	Grooming	Personal Care	Grooming	Washing, dressing and grooming oneself	285	4	True	False	False	True	0.6040701999991143
video_on	action	27	eeg	1	N2vAS2SYjRg	Playing water polo	Participating_in_sports&Exercise&Recreation	Sports, Exercise, and Recreation	Participating in Sports, Exercise, or Recreation	Participating in water sports	130	1	True	True	True	True	0.530693099997734
video_on	action	27	eeg	1	o79vLIyWc7k	Using the balance beam	Participating_in_sports&Exercise&Recreation	Sports, Exercise, and Recreation	Participating in Sports, Exercise, or Recreation	Doing gymnastics	180	1	True	True	True	True	0.693546200000128
video_on	action	27	eeg	1	aTcgisqWKRM	Brushing teeth	Grooming	Personal Care	Grooming	Washing, dressing and grooming oneself	148	4	True	False	False	True	0.7919409000023734
video_on	action	27	eeg	1	XlK_J99wqmA	Cleaning shoes	Housework	Household Activities	Housework	Sewing, repairing, & maintaining textiles	134	6	True	False	False	True	0.4670021999991149
video_on	action	27	eeg	1	CErVtfN1S6Q	Raking leaves	Lawn&Garden&Houseplants	Household Activities	Lawn, Garden, and Houseplants	Lawn, garden, and houseplant care	354	9	True	False	False	True	0.7854638999997405
video_on	action	27	eeg	1	wX_y4Zo5bOY	Building sandcastles	Arts&Entertainment	Socializing, Relaxing, and Leisure	Arts and Entertainment	Beach activities	286	2	True	False	False	True	0.8865368000006129
video_on	action	27	eeg	1	gGKq91w8CQA	Using parallel bars	Participating_in_sports&Exercise&Recreation	Sports, Exercise, and Recreation	Participating in Sports, Exercise, or Recreation	Doing gymnastics	88	1	False	True	False	False	0.0
video_on	action	27	eeg	1	jUMp8wqoSz0	Mowing the lawn	Lawn&Garden&Houseplants	Household Activities	Lawn, Garden, and Houseplants	Lawn, garden, and houseplant care	218	9	True	False	True	False	0.0050708999988273
video_on	action	27	eeg	1	P_e4BlO947E	Using uneven bars	Participating_in_sports&Exercise&Recreation	Sports, Exercise, and Recreation	Participating in Sports, Exercise, or Recreation	Doing gymnastics	192	1	True	True	True	True	0.9285010999992664
video_on	action	27	eeg	1	0MAFeuu0MMU	Playing badminton	Participating_in_sports&Exercise&Recreation	Sports, Exercise, and Recreation	Participating in Sports, Exercise, or Recreation	Playing racquet sports	268	1	True	True	True	True	0.7163020000007236
video_on	action	27	eeg	1	E4x8NNhtngc	BMX	Participating_in_sports&Exercise&Recreation	Sports, Exercise, and Recreation	Participating in Sports, Exercise, or Recreation	Biking	274	1	True	True	True	True	0.4975164999996195
video_on	action	27	eeg	1	nk_Ml5TtKs0	Shoveling snow	Exterior_maintenance&Repair&Decoration	Household Activities	Exterior Maintenance, Repair, & Decoration	Exterior cleaning	183	12	True	False	False	True	0.4776540999991994
video_on	action	27	eeg	1	0oRv537diok	Making a cake	Food&Drink_prep.&Presentation&Clean-up	Eating and drinking Activities	Food & Drink Prep., Presentation, & Clean-up	Food and drink preparation	332	5	True	False	False	True	1.8513050000001383
video_on	action	27	eeg	1	zqaOmtPNkPs	Powerbocking	Participating_in_sports&Exercise&Recreation	Sports, Exercise, and Recreation	Participating in Sports, Exercise, or Recreation	Playing sports	350	1	True	True	True	True	0.9281436999990548
video_on	action	27	eeg	1	-DF-YBnO7dU	Playing piano	Arts&Entertainment	Socializing, Relaxing, and Leisure	Arts and Entertainment	Playing musical instruments	197	2	True	False	False	True	0.6883898000014597
video_on	action	27	eeg	1	IBBZnpG0K_w	Chopping wood	Interior_maintenance&Repair&Decoration	Household Activities	Interior Maintenance, Repair, & Decoration	Heating and cooling	110	7	False	False	False	True	0.0
video_on	action	27	eeg	1	pUXHQXndpzo	Playing rubik cube	Relaxing&Leisure	Socializing, Relaxing, and Leisure	Relaxing and Leisure	Playing games	349	3	True	False	False	True	0.0050709999995888
video_on	action	27	eeg	1	6t6Pjy5-Xd0	Preparing salad	Food&Drink_prep.&Presentation&Clean-up	Eating and drinking Activities	Food & Drink Prep., Presentation, & Clean-up	Food and drink preparation	96	5	True	False	False	True	0.8079027999992832
video_on	action	27	eeg	1	w6KpAOQOWQs	Beach soccer	Participating_in_sports&Exercise&Recreation	Sports, Exercise, and Recreation	Participating in Sports, Exercise, or Recreation	Playing soccer	278	1	True	True	True	True	0.28120349999881
video_on	action	27	eeg	1	175bG8Hi8IA	Drinking coffee	Food&Drink_prep.&Presentation&Clean-up	Eating and drinking Activities	Food & Drink Prep., Presentation, & Clean-up	Eating and Drinking	68	5	True	False	False	True	0.494498799998837
video_on	action	27	eeg	1	vitxZhWX5xQ	Doing kickboxing	Participating_in_sports&Exercise&Recreation	Sports, Exercise, and Recreation	Participating in Sports, Exercise, or Recreation	Participating in martial arts	70	1	False	True	False	False	0.0
video_on	action	27	eeg	1	-2W0KSqdagA	Cheerleading	Arts&Entertainment	Socializing, Relaxing, and Leisure	Arts and Entertainment	Dancing	140	2	True	False	True	False	0.0050727999987429
video_on	action	27	eeg	1	mJ45d8CmklE	Bungee jumping	Participating_in_sports&Exercise&Recreation	Sports, Exercise, and Recreation	Participating in Sports, Exercise, or Recreation	Playing sports	154	1	True	True	True	True	0.889744599997357
video_on	action	27	eeg	1	CIL8OAgNl1Q	Windsurfing	Participating_in_sports&Exercise&Recreation	Sports, Exercise, and Recreation	Participating in Sports, Exercise, or Recreation	Participating in water sports	237	1	True	True	True	True	0.5313702999992529
video_on	action	27	eeg	1	JTEaLUjqrZo	Mooping floor	Housework	Household Activities	Housework	Interior cleaning	335	6	True	False	False	True	0.8304160999978194
video_on	action	27	eeg	1	Z3-HsTuTi6U	Playing pool	Relaxing&Leisure	Socializing, Relaxing, and Leisure	Relaxing and Leisure	Playing games	348	3	False	False	False	True	0.0
video_on	action	27	eeg	1	wfWUHKUt-Q0	Snowboarding	Participating_in_sports&Exercise&Recreation	Sports, Exercise, and Recreation	Participating in Sports, Exercise, or Recreation	Skiing, ice skating, snowboarding	373	1	True	True	True	True	0.005070600000181
video_on	action	27	eeg	1	RDgh7UogSVM	Zumba	Participating_in_sports&Exercise&Recreation	Sports, Exercise, and Recreation	Participating in Sports, Exercise, or Recreation	Doing aerobics	69	1	True	True	False	False	0.4502070000016829
video_on	action	27	eeg	1	6rkcZQ5_kd0	Playing ice hockey	Participating_in_sports&Exercise&Recreation	Sports, Exercise, and Recreation	Participating in Sports, Exercise, or Recreation	Playing hockey	347	1	False	True	False	False	0.0
video_on	action	27	eeg	1	Gox90ljCfeE	Welding	Appliances&Tools&Toys	Household Activities	Appliances, Tools, and Toys	Appliance, tool, and toy set-up, repair, & maintenance (by self)	388	10	True	False	True	False	0.0051077999996778
video_on	action	27	eeg	1	Qw2xSqEVXZ4	Cleaning windows	Housework	Household Activities	Housework	Interior cleaning	143	6	True	False	True	False	0.0050709999995888
video_on	action	27	eeg	1	2RJIwiocC2I	Kneeling	Participating_in_sports&Exercise&Recreation	Sports, Exercise, and Recreation	Participating in Sports, Exercise, or Recreation	Working out	328	1	True	True	False	False	0.4111942999988969
video_on	action	27	eeg	1	BQpTOOJM-5Y	Shaving	Grooming	Personal Care	Grooming	Washing, dressing and grooming oneself	190	4	True	False	False	True	0.4742594000017561
video_on	action	27	eeg	1	RrMv1B1-Jzs	Drum corps	Arts&Entertainment	Socializing, Relaxing, and Leisure	Arts and Entertainment	Playing musical instruments	307	2	True	False	False	True	0.5696568999992451
video_on	action	27	eeg	1	Mxkj8amzAIM	Doing fencing	Participating_in_sports&Exercise&Recreation	Sports, Exercise, and Recreation	Participating in Sports, Exercise, or Recreation	Fencing	309	1	True	True	True	True	0.5840754999990168
video_on	action	27	eeg	1	24FSDO5108A	Playing accordion	Arts&Entertainment	Socializing, Relaxing, and Leisure	Arts and Entertainment	Playing musical instruments	267	2	True	False	False	True	0.0050705000030575
video_on	action	27	eeg	1	HwdBJcdTH5A	Rock-paper-scissors	Relaxing&Leisure	Socializing, Relaxing, and Leisure	Relaxing and Leisure	Playing games	358	3	True	False	False	True	0.3815391000025556
video_on	action	27	eeg	1	EkfcBMOoI9M	Doing crunches	Participating_in_sports&Exercise&Recreation	Sports, Exercise, and Recreation	Participating in Sports, Exercise, or Recreation	Working out	305	1	True	True	True	True	0.0050721999978122
video_on	action	27	eeg	1	9X87QNDxxsw	Triple jump	Participating_in_sports&Exercise&Recreation	Sports, Exercise, and Recreation	Participating in Sports, Exercise, or Recreation	Playing sports	155	1	True	True	True	True	0.4723569000016141
video_on	action	27	eeg	1	fsyMiHRW3z4	Hopscotch	Relaxing&Leisure	Socializing, Relaxing, and Leisure	Relaxing and Leisure	Playing games	241	3	False	False	False	True	0.0
video_on	action	27	eeg	1	wBb5hbEr9tw	Bathing dog	Animals&Pets	Household Activities	Animals and Pets	Care for animals and pets (not veterinary care)	90	8	True	False	False	True	0.0051308999973116
video_on	action	27	eeg	1	F2KLCKfyHBA	Capoeira	Participating_in_sports&Exercise&Recreation	Sports, Exercise, and Recreation	Participating in Sports, Exercise, or Recreation	Participating in martial arts	294	1	True	True	True	True	0.0051325999993423
video_on	action	27	eeg	1	nf1xHFJtZ7I	Discus throw	Participating_in_sports&Exercise&Recreation	Sports, Exercise, and Recreation	Participating in Sports, Exercise, or Recreation	Playing sports	92	1	True	True	True	True	0.0050698999984888
video_on	action	27	meg	2	iHAfSbsQnVI	Using the rowing machine	Participating_in_sports&Exercise&Recreation	Sports, Exercise, and Recreation	Participating in Sports, Exercise, or Recreation	Using cardiovascular equipment	384	1	True	True	True	True	0.6179030541097745
video_on	action	27	meg	2	8NW1CLyptoY	Skateboarding	Participating_in_sports&Exercise&Recreation	Sports, Exercise, and Recreation	Participating in Sports, Exercise, or Recreation	Playing sports	176	1	True	True	True	True	0.4826987254200503
video_on	action	27	meg	2	XT8nxW_U2kk	Spinning	Participating_in_sports&Exercise&Recreation	Sports, Exercise, and Recreation	Participating in Sports, Exercise, or Recreation	Using cardiovascular equipment	117	1	True	True	True	True	0.4975160557078197
video_on	action	27	meg	2	X6IoTFqaegc	Cleaning windows	Housework	Household Activities	Housework	Interior cleaning	143	6	True	False	False	True	0.9149077406618744
video_on	action	27	meg	2	eX1gCUWuDdQ	Horseback riding	Participating_in_sports&Exercise&Recreation	Sports, Exercise, and Recreation	Participating in Sports, Exercise, or Recreation	Participating in equestrian sports	175	1	True	True	True	True	0.4109129328280687
video_on	action	27	meg	2	mq4gMWvtMmM	Laying tile	Interior_maintenance&Repair&Decoration	Household Activities	Interior Maintenance, Repair, & Decoration	Interior arrangement, decoration, & repairs	330	7	True	False	False	True	0.7232076795771718
video_on	action	27	meg	2	Ief-aHaRHGY	Sharpening knives	Appliances&Tools&Toys	Household Activities	Appliances, Tools, and Toys	Appliance, tool, and toy set-up, repair, & maintenance (by self)	365	10	True	False	False	True	0.4114786388818174
video_on	action	27	meg	2	Da80iGeYZHk	Kneeling	Participating_in_sports&Exercise&Recreation	Sports, Exercise, and Recreation	Participating in Sports, Exercise, or Recreation	Working out	328	1	True	True	False	False	0.8995527783408761
video_on	action	27	meg	2	yP4t6Iw_Z8E	Playing piano	Arts&Entertainment	Socializing, Relaxing, and Leisure	Arts and Entertainment	Playing musical instruments	197	2	True	False	False	True	0.6036924842046574
video_on	action	27	meg	2	zuEX_UXZcDQ	Pole vault	Participating_in_sports&Exercise&Recreation	Sports, Exercise, and Recreation	Participating in Sports, Exercise, or Recreation	Playing sports	106	1	True	True	True	True	0.4678768668090924
video_on	action	27	meg	2	EN6FTjSy2I0	Using uneven bars	Participating_in_sports&Exercise&Recreation	Sports, Exercise, and Recreation	Participating in Sports, Exercise, or Recreation	Doing gymnastics	192	1	True	True	True	True	0.6041356305358931
video_on	action	27	meg	2	_sFZo6q3DcI	Fun sliding down	Arts&Entertainment	Socializing, Relaxing, and Leisure	Arts and Entertainment	Park activities	313	2	True	False	False	True	0.6202138755470514
video_on	action	27	meg	2	hrbT631SH8k	Sumo	Participating_in_sports&Exercise&Recreation	Sports, Exercise, and Recreation	Participating in Sports, Exercise, or Recreation	Wrestling	375	1	True	True	True	True	0.5563334767939523
video_on	action	27	meg	2	e1dT_iK9l1k	Playing accordion	Arts&Entertainment	Socializing, Relaxing, and Leisure	Arts and Entertainment	Playing musical instruments	267	2	True	False	False	True	0.6458043726161122
video_on	action	27	meg	2	eWtV7zAkd30	Starting a campfire	Participating_in_sports&Exercise&Recreation	Sports, Exercise, and Recreation	Participating in Sports, Exercise, or Recreation	Playing sports	153	1	True	True	False	False	0.5567669632146135
video_on	action	27	meg	2	pwv94vBT8vo	Playing guitarra	Arts&Entertainment	Socializing, Relaxing, and Leisure	Arts and Entertainment	Playing musical instruments	251	2	True	False	False	True	0.6209121028659865
video_on	action	27	meg	2	DTc4Z2NULak	Archery	Participating_in_sports&Exercise&Recreation	Sports, Exercise, and Recreation	Participating in Sports, Exercise, or Recreation	Playing sports	250	1	False	True	False	False	0.0
video_on	action	27	meg	2	Zbco-ngP_08	Beer pong	Relaxing&Leisure	Socializing, Relaxing, and Leisure	Relaxing and Leisure	Playing games	280	3	True	False	True	False	0.005350962630473
video_on	action	27	meg	2	kDr6tF27IRM	Hurling	Participating_in_sports&Exercise&Recreation	Sports, Exercise, and Recreation	Participating in Sports, Exercise, or Recreation	Playing sports	323	1	True	True	True	True	0.7251927822362632
video_on	action	27	meg	2	CeibkdUPpOg	Surfing	Participating_in_sports&Exercise&Recreation	Sports, Exercise, and Recreation	Participating in Sports, Exercise, or Recreation	Participating in water sports	376	1	True	True	True	True	0.4688540227944031
video_on	action	27	meg	2	fR7qntd9QUc	Volleyball	Participating_in_sports&Exercise&Recreation	Sports, Exercise, and Recreation	Participating in Sports, Exercise, or Recreation	Playing volleyball	123	1	True	True	True	True	0.3589558288222179
video_on	action	27	meg	2	vYY0FcCzQYs	Washing dishes	Food&Drink_prep.&Presentation&Clean-up	Eating and drinking Activities	Food & Drink Prep., Presentation, & Clean-up	Kitchen and food clean-up	213	5	True	False	False	True	0.6051435773260891
video_on	action	27	meg	2	i_wwYmOb4_s	Waxing skis	Appliances&Tools&Toys	Household Activities	Appliances, Tools, and Toys	Appliance, tool, and toy set-up, repair, & maintenance (by self)	387	10	True	False	False	True	0.5880241798004135
video_on	action	27	meg	2	YSZ-3m6Fxt8	Waterskiing	Participating_in_sports&Exercise&Recreation	Sports, Exercise, and Recreation	Participating in Sports, Exercise, or Recreation	Participating in water sports	386	1	True	True	True	True	0.5334634396713227
video_on	action	27	meg	2	Grv66KXU8Yg	Shuffleboard	Relaxing&Leisure	Socializing, Relaxing, and Leisure	Relaxing and Leisure	Playing games	368	3	True	False	True	False	0.9014916947344318
video_on	action	27	meg	2	giJ9M4wpnSA	Using the pommel horse	Participating_in_sports&Exercise&Recreation	Sports, Exercise, and Recreation	Participating in Sports, Exercise, or Recreation	Doing gymnastics	114	1	True	True	True	True	0.6858245979528874
video_on	action	27	meg	2	HauWO-WGrP4	Tai chi	Participating_in_sports&Exercise&Recreation	Sports, Exercise, and Recreation	Participating in Sports, Exercise, or Recreation	Participating in martial arts	263	1	True	True	False	False	0.8466444790828973
video_on	action	27	meg	2	XSCY9xYoZXM	Washing hands	Grooming	Personal Care	Grooming	Washing, dressing and grooming oneself	173	4	False	False	False	True	0.0
video_on	action	27	meg	2	6HU7tXPyakU	Wrapping presents	Household_management	Household Activities	Household Management	Household & personal organization and planning	179	13	True	False	False	True	0.005100711598061
video_on	action	27	meg	2	d6JVt0PQi04	Putting on makeup	Grooming	Personal Care	Grooming	Washing, dressing and grooming oneself	76	4	True	False	False	True	1.054267321829684
video_on	action	27	meg	2	q9hDrt1O4RY	Zumba	Participating_in_sports&Exercise&Recreation	Sports, Exercise, and Recreation	Participating in Sports, Exercise, or Recreation	Doing aerobics	69	1	True	True	True	True	0.7266224425984547
video_on	action	27	meg	2	RIHCW_-v_I0	Breakdancing	Arts&Entertainment	Socializing, Relaxing, and Leisure	Arts and Entertainment	Dancing	236	2	True	False	False	True	0.6387475378578529
video_on	action	27	meg	2	tk8vEd_6v-I	Calf roping	Participating_in_sports&Exercise&Recreation	Sports, Exercise, and Recreation	Participating in Sports, Exercise, or Recreation	Participating in rodeo competitions	290	1	True	True	False	False	0.614910306641832
video_on	action	27	meg	2	zsvkWWXdQkM	Getting a piercing	Grooming	Personal Care	Grooming	Washing, dressing and grooming	214	4	True	False	False	True	0.9561351476004348
video_on	action	27	meg	2	iIw0Ucp4mws	Playing field hockey	Participating_in_sports&Exercise&Recreation	Sports, Exercise, and Recreation	Participating in Sports, Exercise, or Recreation	Playing hockey	94	1	True	True	True	True	0.8629572776844725
video_on	action	27	meg	2	YNTzMAuIUio	Playing beach volleyball	Participating_in_sports&Exercise&Recreation	Sports, Exercise, and Recreation	Participating in Sports, Exercise, or Recreation	Playing volleyball	341	1	True	True	True	True	0.7271606782451272
video_on	action	27	meg	2	FcnmMjNXYe4	Doing karate	Participating_in_sports&Exercise&Recreation	Sports, Exercise, and Recreation	Participating in Sports, Exercise, or Recreation	Participating in martial arts	99	1	True	True	True	True	0.6656285327626392
video_on	action	27	meg	2	OVzoRyEkiAk	Hitting a pinata	Relaxing&Leisure	Socializing, Relaxing, and Leisure	Relaxing and Leisure	Playing games	321	3	True	False	False	True	0.4315859540365636
video_on	action	27	meg	2	Egx-xOfMhfI	Drum corps	Arts&Entertainment	Socializing, Relaxing, and Leisure	Arts and Entertainment	Playing musical instruments	307	2	True	False	False	True	0.7823755725985393
video_on	action	27	meg	2	JyqXNyHMbhA	Hand washing clothes	Housework	Household Activities	Housework	Laundry	232	6	True	False	False	True	0.7438734557945281
video_on	action	27	meg	2	J0PaSAcml90	Croquet	Participating_in_sports&Exercise&Recreation	Sports, Exercise, and Recreation	Participating in Sports, Exercise, or Recreation	Playing sports	299	1	True	True	True	True	0.7761126582045108
video_on	action	27	meg	2	sIa1YBOlIRo	Throwing darts	Relaxing&Leisure	Socializing, Relaxing, and Leisure	Relaxing and Leisure	Playing games	380	3	True	False	False	True	0.89841774397064
video_on	action	27	meg	2	Y2HkmGSMijo	Discus throw	Participating_in_sports&Exercise&Recreation	Sports, Exercise, and Recreation	Participating in Sports, Exercise, or Recreation	Playing sports	92	1	True	True	True	True	0.7590835201554
video_on	action	27	meg	2	zoouHAB490w	Using parallel bars	Participating_in_sports&Exercise&Recreation	Sports, Exercise, and Recreation	Participating in Sports, Exercise, or Recreation	Doing gymnastics	88	1	True	True	True	True	0.7844470103736967
video_on	action	27	meg	2	S6FE5Fg7Dz8	Playing racquetball	Participating_in_sports&Exercise&Recreation	Sports, Exercise, and Recreation	Participating in Sports, Exercise, or Recreation	Playing racquet sports	253	1	True	True	True	True	0.8028116250643507
video_on	action	27	meg	2	zxluXuBigiI	Decorating the Christmas tree	Interior_maintenance&Repair&Decoration	Household Activities	Interior Maintenance, Repair, & Decoration	Interior arrangement, decoration, & repairs	302	7	True	False	False	True	0.79304036765825
video_on	action	27	meg	2	3YADTfD1rBg	Playing saxophone	Arts&Entertainment	Socializing, Relaxing, and Leisure	Arts and Entertainment	Playing musical instruments	109	2	True	False	False	True	0.5391093300422654
video_on	action	27	meg	2	x6sE_TZ2SOc	Making a sandwich	Food&Drink_prep.&Presentation&Clean-up	Eating and drinking Activities	Food & Drink Prep., Presentation, & Clean-up	Food and drink preparation	129	5	False	False	False	True	0.0
video_on	action	27	meg	2	y_thstigIXo	Knitting	Housework	Household Activities	Housework	Sewing, repairing, & maintaining textiles	329	6	True	False	True	False	0.0051004098495468
video_on	action	27	meg	2	PF0qD39Hb48	Preparing pasta	Food&Drink_prep.&Presentation&Clean-up	Eating and drinking Activities	Food & Drink Prep., Presentation, & Clean-up	Food and drink preparation	186	5	True	False	False	True	0.5862404250074178
video_on	action	27	meg	2	5-GLEVTkOMM	Hula hoop	Relaxing&Leisure	Socializing, Relaxing, and Leisure	Relaxing and Leisure	Playing games	322	3	True	False	True	False	0.3319220871198922
video_on	action	27	meg	2	7o552HH1tYc	Shaving	Grooming	Personal Care	Grooming	Washing, dressing and grooming oneself	190	4	True	False	False	True	0.9299173628678544
video_on	action	27	meg	2	6Vi9LJjjNaI	Hand car wash	Vehicles	Household Activities	Vehicles	Vehicle repair and maintenance (by self)	318	11	True	False	False	True	0.6339719410752878
video_on	action	27	meg	2	4ypExW73PQo	Powerbocking	Participating_in_sports&Exercise&Recreation	Sports, Exercise, and Recreation	Participating in Sports, Exercise, or Recreation	Playing sports	350	1	True	True	True	True	0.6401787075446919
video_on	action	27	meg	2	MNj54b21V8g	Playing squash	Participating_in_sports&Exercise&Recreation	Sports, Exercise, and Recreation	Participating in Sports, Exercise, or Recreation	Playing racquet sports	194	1	True	True	True	True	0.7542864904971793
video_on	action	27	meg	2	Vw2OYbVW6ec	Playing polo	Participating_in_sports&Exercise&Recreation	Sports, Exercise, and Recreation	Participating in Sports, Exercise, or Recreation	Participating in equestrian sports	75	1	True	True	True	True	0.5803931867703795
video_on	action	27	meg	2	Ge572Qsxpks	Shot put	Participating_in_sports&Exercise&Recreation	Sports, Exercise, and Recreation	Participating in Sports, Exercise, or Recreation	Playing sports	169	1	True	True	True	True	0.594769483897835
video_on	action	27	meg	2	uMtPr8zQk_Q	Hanging wallpaper	Interior_maintenance&Repair&Decoration	Household Activities	Interior Maintenance, Repair, & Decoration	Interior arrangement, decoration, & repairs	319	7	True	False	False	True	0.9409631189191714
video_on	action	27	meg	2	7oDOvpbw-Wk	Long jump	Participating_in_sports&Exercise&Recreation	Sports, Exercise, and Recreation	Participating in Sports, Exercise, or Recreation	Playing sports	80	1	True	True	True	True	0.4768786554923281
video_on	action	27	meg	2	W0RYvQUUNe0	Windsurfing	Participating_in_sports&Exercise&Recreation	Sports, Exercise, and Recreation	Participating in Sports, Exercise, or Recreation	Participating in water sports	237	1	True	True	True	True	0.7388977186055854
video_on	action	27	meg	2	fWJceZGsWpc	Playing drums	Arts&Entertainment	Socializing, Relaxing, and Leisure	Arts and Entertainment	Playing musical instruments	346	2	True	False	False	True	0.5334851744119078
video_on	action	27	meg	2	QhV4wruk8_Y	Braiding hair	Grooming	Personal Care	Grooming	Washing, dressing and grooming oneself	285	4	True	False	False	True	0.483460949268192
video_on	action	27	meg	2	HALiNyFXWnw	Ironing clothes	Housework	Household Activities	Housework	Laundry	83	6	True	False	False	True	0.5875472238985822
video_on	action	27	meg	2	V2KbELQ4lMM	Snow tubing	Participating_in_sports&Exercise&Recreation	Sports, Exercise, and Recreation	Participating in Sports, Exercise, or Recreation	Skiing, ice skating, snowboarding	372	1	True	True	True	True	0.4997100530890748
video_on	action	27	meg	2	1ka4HxCcSTk	Elliptical trainer	Participating_in_sports&Exercise&Recreation	Sports, Exercise, and Recreation	Participating in Sports, Exercise, or Recreation	Using cardiovascular equipment	308	1	True	True	False	False	0.7879390522139147
video_on	action	27	meg	2	1-TjK0GL9ks	Playing ice hockey	Participating_in_sports&Exercise&Recreation	Sports, Exercise, and Recreation	Participating in Sports, Exercise, or Recreation	Playing hockey	347	1	True	True	True	True	0.3240713321138173
video_on	action	27	meg	2	GqSBGtskN6Y	Getting a tattoo	Grooming	Personal Care	Grooming	Washing, dressing and grooming	187	4	True	False	False	True	0.6748319711769
video_on	action	27	meg	2	ZtnwANlQRfY	Playing congas	Arts&Entertainment	Socializing, Relaxing, and Leisure	Arts and Entertainment	Playing musical instruments	345	2	True	False	False	True	0.7704392975429073
video_on	action	27	meg	2	_FnMzpsj1TU	Painting furniture	Interior_maintenance&Repair&Decoration	Household Activities	Interior Maintenance, Repair, & Decoration	Building and repairing furniture	337	7	True	False	False	True	0.5886249028844759
video_on	action	27	meg	2	VBEol8UibDI	BMX	Participating_in_sports&Exercise&Recreation	Sports, Exercise, and Recreation	Participating in Sports, Exercise, or Recreation	Biking	274	1	True	True	True	True	0.964650924084708
video_on	action	27	meg	2	hFztsUYnR0Y	Cleaning shoes	Housework	Household Activities	Housework	Sewing, repairing, & maintaining textiles	134	6	False	False	False	True	0.0
video_on	action	27	meg	2	hz0tpv8D7p4	Drinking coffee	Food&Drink_prep.&Presentation&Clean-up	Eating and drinking Activities	Food & Drink Prep., Presentation, & Clean-up	Eating and Drinking	68	5	True	False	True	False	0.0050985985435545
video_on	action	27	meg	2	9DMUpk2mPys	Smoking hookah	Relaxing&Leisure	Socializing, Relaxing, and Leisure	Relaxing and Leisure	Tobacco and drug use	189	3	True	False	False	True	0.7832301689777523
video_on	action	27	meg	2	G4tG5S_gdnY	Tango	Arts&Entertainment	Socializing, Relaxing, and Leisure	Arts and Entertainment	Dancing	73	2	True	False	False	True	0.6851710474584252
video_on	action	27	meg	2	VVRxyGo4IMs	Scuba diving	Participating_in_sports&Exercise&Recreation	Sports, Exercise, and Recreation	Participating in Sports, Exercise, or Recreation	Participating in water sports	364	1	True	True	False	False	1.957284973701462
video_on	action	27	meg	2	IUXM17PIjc4	Building sandcastles	Arts&Entertainment	Socializing, Relaxing, and Leisure	Arts and Entertainment	Beach activities	286	2	False	False	False	True	0.0
video_on	action	27	meg	2	JlERCyY7FWA	Polishing forniture	Housework	Household Activities	Housework	Interior cleaning	156	6	True	False	False	True	0.0050979949301108
video_on	action	27	meg	2	L922raxbV1s	Making an omelette	Food&Drink_prep.&Presentation&Clean-up	Eating and drinking Activities	Food & Drink Prep., Presentation, & Clean-up	Food and drink preparation	334	5	True	False	False	True	0.005097692948766
video_on	action	27	meg	2	YEdpjvbEj34	Doing crunches	Participating_in_sports&Exercise&Recreation	Sports, Exercise, and Recreation	Participating in Sports, Exercise, or Recreation	Working out	305	1	True	True	True	True	0.4539745069341734
video_on	action	27	meg	2	xKrhfa6U4Lo	Rafting	Participating_in_sports&Exercise&Recreation	Sports, Exercise, and Recreation	Participating in Sports, Exercise, or Recreation	Boating	353	1	True	True	False	False	0.8802185544045642
video_on	action	27	meg	2	77enttJNB74	Ice fishing	Participating_in_sports&Exercise&Recreation	Sports, Exercise, and Recreation	Participating in Sports, Exercise, or Recreation	Fishing	324	1	False	True	False	False	0.0
video_on	action	27	meg	2	Ac7aN4CgQPY	Playing kickball	Participating_in_sports&Exercise&Recreation	Sports, Exercise, and Recreation	Participating in Sports, Exercise, or Recreation	Playing sports	257	1	True	True	False	False	0.0051034284988418
video_on	action	27	meg	2	KCR0awgunj0	Plataform diving	Participating_in_sports&Exercise&Recreation	Sports, Exercise, and Recreation	Participating in Sports, Exercise, or Recreation	Participating in water sports	233	1	True	True	True	True	0.5106915106298402
video_on	action	27	meg	2	Jd7uXbVuf-g	Cricket	Participating_in_sports&Exercise&Recreation	Sports, Exercise, and Recreation	Participating in Sports, Exercise, or Recreation	Playing sports	82	1	True	True	False	False	0.590951421414502
video_on	action	27	meg	2	Xq8kZ1gHIhY	Slacklining	Relaxing&Leisure	Socializing, Relaxing, and Leisure	Relaxing and Leisure	Playing games	371	3	True	False	True	False	0.9350515821715816
video_on	action	27	meg	2	ciM_WJxCs8k	Disc dog	Animals&Pets	Household Activities	Animals and Pets	Walking / exercising / playing with animals	303	8	False	False	False	True	0.0
video_on	action	27	meg	2	HX_w8ZTOFqo	Tug of war	Relaxing&Leisure	Socializing, Relaxing, and Leisure	Relaxing and Leisure	Playing games	382	3	True	False	False	True	0.005429750890471
video_on	action	27	meg	2	fC_Vc5DFNRs	Wakeboarding	Participating_in_sports&Exercise&Recreation	Sports, Exercise, and Recreation	Participating in Sports, Exercise, or Recreation	Participating in water sports	385	1	True	True	True	True	0.8496574520831928
video_on	action	27	meg	2	497rhzVPPcg	Raking leaves	Lawn&Garden&Houseplants	Household Activities	Lawn, Garden, and Houseplants	Lawn, garden, and houseplant care	354	9	True	False	False	True	0.6794931588228792
video_on	action	27	meg	2	jEzya8zXkmk	Spread mulch	Lawn&Garden&Houseplants	Household Activities	Lawn, Garden, and Houseplants	Lawn, garden, and houseplant care	374	9	False	False	False	True	0.0
video_on	action	27	eeg	2	YNv3fa9k53U	Horseback riding	Participating_in_sports&Exercise&Recreation	Sports, Exercise, and Recreation	Participating in Sports, Exercise, or Recreation	Participating in equestrian sports	175	1	True	True	True	True	0.005093100000522
video_on	action	27	eeg	2	rnsx0cm4Xy8	Kayaking	Participating_in_sports&Exercise&Recreation	Sports, Exercise, and Recreation	Participating in Sports, Exercise, or Recreation	Participating in water sports	254	1	True	True	True	True	0.0050702999978966
video_on	action	27	eeg	2	1mUhIWYmF58	Plataform diving	Participating_in_sports&Exercise&Recreation	Sports, Exercise, and Recreation	Participating in Sports, Exercise, or Recreation	Participating in water sports	233	1	True	True	True	True	0.692571699997643
video_on	action	27	eeg	2	-zcQ3OtGnNk	Trimming branches or hedges	Lawn&Garden&Houseplants	Household Activities	Lawn, Garden, and Houseplants	Lawn, garden, and houseplant care	381	9	True	False	False	True	0.0050719000028038
video_on	action	27	eeg	2	d1K0ugVWq9o	Grooming horse	Animals&Pets	Household Activities	Animals and Pets	Walking / exercising / playing with animals	95	8	True	False	False	True	0.4491734000002907
video_on	action	27	eeg	2	lkNTe63ulp4	Tug of war	Relaxing&Leisure	Socializing, Relaxing, and Leisure	Relaxing and Leisure	Playing games	382	3	True	False	True	False	0.0050840000003518
video_on	action	27	eeg	2	0tHmpaLGW4w	High jump	Participating_in_sports&Exercise&Recreation	Sports, Exercise, and Recreation	Participating in Sports, Exercise, or Recreation	Playing sports	195	1	True	True	True	True	0.9794196999973792
video_on	action	27	eeg	2	EYBJkhptFFA	Washing hands	Grooming	Personal Care	Grooming	Washing, dressing and grooming oneself	173	4	False	False	False	True	0.0
video_on	action	27	eeg	2	fumjHnGKtfg	Throwing darts	Relaxing&Leisure	Socializing, Relaxing, and Leisure	Relaxing and Leisure	Playing games	380	3	True	False	False	True	0.0050775000017893
video_on	action	27	eeg	2	hSlsyqryUro	Smoking hookah	Relaxing&Leisure	Socializing, Relaxing, and Leisure	Relaxing and Leisure	Tobacco and drug use	189	3	True	False	True	False	1.1207638000014413
video_on	action	27	eeg	2	2_mvwzElKEo	Bullfighting	Participating_in_sports&Exercise&Recreation	Sports, Exercise, and Recreation	Participating in Sports, Exercise, or Recreation	Participating in rodeo competitions	288	1	True	True	False	False	0.0050730000002658
video_on	action	27	eeg	2	9_1aJcnj7yw	Putting in contact lenses	Grooming	Personal Care	Grooming	Washing, dressing and grooming oneself	351	4	True	False	False	True	0.00507369999832
video_on	action	27	eeg	2	70U_nllWPD0	Scuba diving	Participating_in_sports&Exercise&Recreation	Sports, Exercise, and Recreation	Participating in Sports, Exercise, or Recreation	Participating in water sports	364	1	True	True	True	True	0.7387931999983266
video_on	action	27	eeg	2	QEkldRIewIM	Pole vault	Participating_in_sports&Exercise&Recreation	Sports, Exercise, and Recreation	Participating in Sports, Exercise, or Recreation	Playing sports	106	1	True	True	True	True	0.7997818000003463
video_on	action	27	eeg	2	igi79RLIxHA	Cricket	Participating_in_sports&Exercise&Recreation	Sports, Exercise, and Recreation	Participating in Sports, Exercise, or Recreation	Playing sports	82	1	True	True	True	True	0.5672006999993755
video_on	action	27	eeg	2	S7QpPbYFvJw	Polishing shoes	Housework	Household Activities	Housework	Sewing, repairing, & maintaining textiles	227	6	True	False	False	True	0.0050836000009439
video_on	action	27	eeg	2	y3JIQnT5Ddc	Assembling bicycle	Vehicles	Household Activities	Vehicles	Vehicle repair and maintenance (by self)	273	11	True	False	False	True	0.700017499999376
video_on	action	27	eeg	2	dOiE5OjyuKs	Belly dance	Arts&Entertainment	Socializing, Relaxing, and Leisure	Arts and Entertainment	Dancing	247	2	True	False	True	False	0.0050952000019606
video_on	action	27	eeg	2	U_ckYV0iyjM	Hitting a pinata	Relaxing&Leisure	Socializing, Relaxing, and Leisure	Relaxing and Leisure	Playing games	321	3	True	False	False	True	0.4238282000005711
video_on	action	27	eeg	2	pyh-lijBM2g	Running a marathon	Participating_in_sports&Exercise&Recreation	Sports, Exercise, and Recreation	Participating in Sports, Exercise, or Recreation	Running	362	1	True	True	True	True	0.6232471000002988
video_on	action	27	eeg	2	DilNY1cKuaU	Swimming	Participating_in_sports&Exercise&Recreation	Sports, Exercise, and Recreation	Participating in Sports, Exercise, or Recreation	Participating in water sports	377	1	True	True	True	True	0.4495220000026165
video_on	action	27	eeg	2	Bv4XWiypIvU	Sailing	Participating_in_sports&Exercise&Recreation	Sports, Exercise, and Recreation	Participating in Sports, Exercise, or Recreation	Participating in water sports	240	1	True	True	True	True	0.5467184999979509
video_on	action	27	eeg	2	dT84v90Lc_I	Knitting	Housework	Household Activities	Housework	Sewing, repairing, & maintaining textiles	329	6	True	False	False	True	0.6120943999994779
video_on	action	27	eeg	2	uimPY3I1aw4	Playing blackjack	Arts&Entertainment	Socializing, Relaxing, and Leisure	Arts and Entertainment	Attending gambling establishments	343	2	True	False	False	True	0.971632299999328
video_on	action	27	eeg	2	fDxgdIcWKmY	Ping-pong	Participating_in_sports&Exercise&Recreation	Sports, Exercise, and Recreation	Participating in Sports, Exercise, or Recreation	Playing racquet sports	119	1	True	True	True	True	0.590038899998035
video_on	action	27	eeg	2	LDDPwqA5Oxg	Fun sliding down	Arts&Entertainment	Socializing, Relaxing, and Leisure	Arts and Entertainment	Park activities	313	2	True	False	True	False	0.498438200000237
video_on	action	27	eeg	2	r9bs_VMM8WY	Mixing drinks	Food&Drink_prep.&Presentation&Clean-up	Eating and drinking Activities	Food & Drink Prep., Presentation, & Clean-up	Food and drink preparation	244	5	True	False	False	True	0.6658219000019017
video_on	action	27	eeg	2	UYV9-EU67Hg	Beer pong	Relaxing&Leisure	Socializing, Relaxing, and Leisure	Relaxing and Leisure	Playing games	280	3	False	False	False	True	0.0
video_on	action	27	eeg	2	9VuaV_LnANc	Rock climbing	Participating_in_sports&Exercise&Recreation	Sports, Exercise, and Recreation	Participating in Sports, Exercise, or Recreation	Climbing, spelunking, caving	188	1	True	True	True	True	0.5102073999987624
video_on	action	27	eeg	2	AZ0Jd_SWiqI	Long jump	Participating_in_sports&Exercise&Recreation	Sports, Exercise, and Recreation	Participating in Sports, Exercise, or Recreation	Playing sports	80	1	True	True	True	True	0.5633132000002661
video_on	action	27	eeg	2	42xVLWgSKOc	Hanging wallpaper	Interior_maintenance&Repair&Decoration	Household Activities	Interior Maintenance, Repair, & Decoration	Interior arrangement, decoration, & repairs	319	7	True	False	False	True	0.5240429999976186
video_on	action	27	eeg	2	3ahF-YrsxuU	Tango	Arts&Entertainment	Socializing, Relaxing, and Leisure	Arts and Entertainment	Dancing	73	2	True	False	True	False	0.820490999998583
video_on	action	27	eeg	2	y6i0EwnofHs	Snatch	Participating_in_sports&Exercise&Recreation	Sports, Exercise, and Recreation	Participating in Sports, Exercise, or Recreation	Weightlifting	79	1	True	True	True	True	0.7021720000011555
video_on	action	27	eeg	2	dMSg6wBvn5g	Sumo	Participating_in_sports&Exercise&Recreation	Sports, Exercise, and Recreation	Participating in Sports, Exercise, or Recreation	Wrestling	375	1	True	True	True	True	0.9557482999989588
video_on	action	27	eeg	2	emplZ1kgr2U	Sharpening knives	Appliances&Tools&Toys	Household Activities	Appliances, Tools, and Toys	Appliance, tool, and toy set-up, repair, & maintenance (by self)	365	10	True	False	False	True	0.8130760999993072
video_on	action	27	eeg	2	xQ4SWF81JBQ	Washing dishes	Food&Drink_prep.&Presentation&Clean-up	Eating and drinking Activities	Food & Drink Prep., Presentation, & Clean-up	Kitchen and food clean-up	213	5	True	False	False	True	0.5374492000009923
video_on	action	27	eeg	2	MzdAiSw2uAk	Camel ride	Participating_in_sports&Exercise&Recreation	Sports, Exercise, and Recreation	Participating in Sports, Exercise, or Recreation	Playing sports	291	1	True	True	True	True	0.0051162999989173
video_on	action	27	eeg	2	6VwpYQnpotY	Elliptical trainer	Participating_in_sports&Exercise&Recreation	Sports, Exercise, and Recreation	Participating in Sports, Exercise, or Recreation	Using cardiovascular equipment	308	1	True	True	True	True	0.0050719999999273
video_on	action	27	eeg	2	HDo9-wxn7Yc	Hula hoop	Relaxing&Leisure	Socializing, Relaxing, and Leisure	Relaxing and Leisure	Playing games	322	3	True	False	True	False	0.0050773000002664
video_on	action	27	eeg	2	Jb2DcI_D9yE	Playing racquetball	Participating_in_sports&Exercise&Recreation	Sports, Exercise, and Recreation	Participating in Sports, Exercise, or Recreation	Playing racquet sports	253	1	True	True	True	True	0.957325800001854
video_on	action	27	eeg	2	0nrAzq049BA	Using the pommel horse	Participating_in_sports&Exercise&Recreation	Sports, Exercise, and Recreation	Participating in Sports, Exercise, or Recreation	Doing gymnastics	114	1	True	True	True	True	0.0050709999995888
video_on	action	27	eeg	2	zWe6Zbaz1uM	Fixing bicycle	Vehicles	Household Activities	Vehicles	Vehicle repair and maintenance (by self)	171	11	True	False	False	True	0.9420664999997824
video_on	action	27	eeg	2	kQOoA4xs-Zc	Doing step aerobics	Participating_in_sports&Exercise&Recreation	Sports, Exercise, and Recreation	Participating in Sports, Exercise, or Recreation	Doing aerobics	230	1	True	True	True	True	0.0050837000017054
video_on	action	27	eeg	2	kH7ihI8-3HI	Getting a tattoo	Grooming	Personal Care	Grooming	Washing, dressing and grooming	187	4	True	False	False	True	0.1969910000007075
video_on	action	27	eeg	2	RYdy4FuWF04	Playing squash	Participating_in_sports&Exercise&Recreation	Sports, Exercise, and Recreation	Participating in Sports, Exercise, or Recreation	Playing racquet sports	194	1	True	True	False	False	0.7163670000009006
video_on	action	27	eeg	2	RsFLLv5f9vQ	Ironing clothes	Housework	Household Activities	Housework	Laundry	83	6	True	False	False	True	0.6038692000001902
video_on	action	27	eeg	2	r4svHRS1Xlw	Smoking a cigarette	Relaxing&Leisure	Socializing, Relaxing, and Leisure	Relaxing and Leisure	Tobacco and drug use	201	3	True	False	False	True	0.4104981000018597
video_on	action	27	eeg	2	VI60fRXHFSw	Preparing pasta	Food&Drink_prep.&Presentation&Clean-up	Eating and drinking Activities	Food & Drink Prep., Presentation, & Clean-up	Food and drink preparation	186	5	True	False	False	True	0.2550707999980659
video_on	action	27	eeg	2	mLd9g8V_-TU	Playing congas	Arts&Entertainment	Socializing, Relaxing, and Leisure	Arts and Entertainment	Playing musical instruments	345	2	True	False	False	True	0.2445853000026545
video_on	action	27	eeg	2	g1N-8wW-lMc	Slacklining	Relaxing&Leisure	Socializing, Relaxing, and Leisure	Relaxing and Leisure	Playing games	371	3	True	False	True	False	0.0050700000028882
video_on	action	27	eeg	2	zzxYEZkahBU	Shuffleboard	Relaxing&Leisure	Socializing, Relaxing, and Leisure	Relaxing and Leisure	Playing games	368	3	True	False	True	False	0.9695324999993318
video_on	action	27	eeg	2	TEJLY-2zeRM	Baking cookies	Food&Drink_prep.&Presentation&Clean-up	Eating and drinking Activities	Food & Drink Prep., Presentation, & Clean-up	Food and drink preparation	276	5	False	False	False	True	0.0
video_on	action	27	eeg	2	_GukJ19kfg4	Making a lemonade	Food&Drink_prep.&Presentation&Clean-up	Eating and drinking Activities	Food & Drink Prep., Presentation, & Clean-up	Food and drink preparation	333	5	True	False	False	True	0.0050687000002653
video_on	action	27	eeg	2	GlsLlIawInQ	Waxing skis	Appliances&Tools&Toys	Household Activities	Appliances, Tools, and Toys	Appliance, tool, and toy set-up, repair, & maintenance (by self)	387	10	True	False	False	True	0.005073700001958
video_on	action	27	eeg	2	l3k1ZSuApxQ	Wrapping presents	Household_management	Household Activities	Household Management	Household & personal organization and planning	179	13	True	False	False	True	2.69509459999972
video_on	action	27	eeg	2	F-h3_h_8rh4	Doing motocross	Participating_in_sports&Exercise&Recreation	Sports, Exercise, and Recreation	Participating in Sports, Exercise, or Recreation	Playing sports	243	1	True	True	True	True	0.005069499999081
video_on	action	27	eeg	2	hKn92s9R6xY	Cleaning sink	Interior_maintenance&Repair&Decoration	Household Activities	Interior Maintenance, Repair, & Decoration	Interior arrangement, decoration, & repairs	297	7	True	False	False	True	0.300152200001321
video_on	action	27	eeg	2	groAnepbJBA	Putting on shoes	Grooming	Personal Care	Grooming	Washing, dressing and grooming oneself	352	4	True	False	False	True	0.662565499998891
video_on	action	27	eeg	2	14BWW-6OwrI	Doing nails	Grooming	Personal Care	Grooming	Washing, dressing and grooming oneself	167	4	True	False	False	True	0.3095033999998122
video_on	action	27	eeg	2	Ch2Y2ByQSeI	Skateboarding	Participating_in_sports&Exercise&Recreation	Sports, Exercise, and Recreation	Participating in Sports, Exercise, or Recreation	Playing sports	176	1	True	True	True	True	0.4790370000009716
video_on	action	27	eeg	2	ez9oSTEQ9_Y	Waterskiing	Participating_in_sports&Exercise&Recreation	Sports, Exercise, and Recreation	Participating in Sports, Exercise, or Recreation	Participating in water sports	386	1	True	True	True	True	0.0050842999989981
video_on	action	27	eeg	2	-EQiyL9rC9U	Ice fishing	Participating_in_sports&Exercise&Recreation	Sports, Exercise, and Recreation	Participating in Sports, Exercise, or Recreation	Fishing	324	1	True	True	False	False	0.9394265000009908
video_on	action	27	eeg	2	0G1o5gtLKcQ	Making a sandwich	Food&Drink_prep.&Presentation&Clean-up	Eating and drinking Activities	Food & Drink Prep., Presentation, & Clean-up	Food and drink preparation	129	5	False	False	False	True	0.0
video_on	action	27	eeg	2	wEGUAk2wkmY	Riding bumper cars	Relaxing&Leisure	Socializing, Relaxing, and Leisure	Relaxing and Leisure	Playing games	356	3	True	False	True	False	0.932882500001142
video_on	action	27	eeg	2	76ifKsMNH1M	Having an ice cream	Food&Drink_prep.&Presentation&Clean-up	Eating and drinking Activities	Food & Drink Prep., Presentation, & Clean-up	Eating and Drinking	320	5	True	False	False	True	0.7884806000001845
video_on	action	27	eeg	2	ds6Ra7OF68g	Kite flying	Relaxing&Leisure	Socializing, Relaxing, and Leisure	Relaxing and Leisure	Playing games	327	3	True	False	False	True	0.5066551999989315
video_on	action	27	eeg	2	cR6yLegqSIw	Putting on makeup	Grooming	Personal Care	Grooming	Washing, dressing and grooming oneself	76	4	True	False	False	True	0.0051185999982408
video_on	action	27	eeg	2	_k8JXQ9NVwU	Hand washing clothes	Housework	Household Activities	Housework	Laundry	232	6	True	False	False	True	0.9708467999989808
video_on	action	27	eeg	2	PReZNNgc6dI	Playing beach volleyball	Participating_in_sports&Exercise&Recreation	Sports, Exercise, and Recreation	Participating in Sports, Exercise, or Recreation	Playing volleyball	341	1	True	True	True	True	0.0050948999996762
video_on	action	27	eeg	2	EDdqeeNPVpQ	Cutting the grass	Lawn&Garden&Houseplants	Household Activities	Lawn, Garden, and Houseplants	Lawn, garden, and houseplant care	301	9	True	False	False	True	0.6454646999991382
video_on	action	27	eeg	2	zm7xHWsu10I	Springboard diving	Participating_in_sports&Exercise&Recreation	Sports, Exercise, and Recreation	Participating in Sports, Exercise, or Recreation	Participating in water sports	193	1	True	True	False	False	0.8407933999988018
video_on	action	27	eeg	2	PEqsAGZlwnU	Table soccer	Relaxing&Leisure	Socializing, Relaxing, and Leisure	Relaxing and Leisure	Playing games	379	3	False	False	False	True	0.0
video_on	action	27	eeg	2	Kx32oAdunM8	Hand car wash	Vehicles	Household Activities	Vehicles	Vehicle repair and maintenance (by self)	318	11	False	False	False	True	0.0
video_on	action	27	eeg	2	n1DxjdkWRPE	Carving jack-o-lanterns	Interior_maintenance&Repair&Decoration	Household Activities	Interior Maintenance, Repair, & Decoration	Interior arrangement, decoration, & repairs	295	7	True	False	False	True	0.5970949000002292
video_on	action	27	eeg	2	8jcCcdeka8g	Breakdancing	Arts&Entertainment	Socializing, Relaxing, and Leisure	Arts and Entertainment	Dancing	236	2	True	False	True	False	0.4831302999991749
video_on	action	27	eeg	2	RLiAUZpt0Tg	Tumbling	Participating_in_sports&Exercise&Recreation	Sports, Exercise, and Recreation	Participating in Sports, Exercise, or Recreation	Doing gymnastics	258	1	True	True	True	True	0.630419900000561
video_on	action	27	eeg	2	99ZnB6_3HXQ	Painting fence	Exterior_maintenance&Repair&Decoration	Household Activities	Exterior Maintenance, Repair, & Decoration	Painting fence	336	12	True	False	False	True	0.6099047999996401
video_on	action	27	eeg	2	MlAvE1HstK8	Volleyball	Participating_in_sports&Exercise&Recreation	Sports, Exercise, and Recreation	Participating in Sports, Exercise, or Recreation	Playing volleyball	123	1	True	True	True	True	0.5006987000015215
video_on	action	27	eeg	2	ikG9y_z9lzA	Wakeboarding	Participating_in_sports&Exercise&Recreation	Sports, Exercise, and Recreation	Participating in Sports, Exercise, or Recreation	Participating in water sports	385	1	True	True	True	True	0.59569570000167
video_on	action	27	eeg	2	lmfGc3L7LCE	Calf roping	Participating_in_sports&Exercise&Recreation	Sports, Exercise, and Recreation	Participating in Sports, Exercise, or Recreation	Participating in rodeo competitions	290	1	True	True	True	True	0.4751087999975425
video_on	action	27	eeg	2	6uQL_wonuhM	Rafting	Participating_in_sports&Exercise&Recreation	Sports, Exercise, and Recreation	Participating in Sports, Exercise, or Recreation	Boating	353	1	True	True	True	True	0.4975343999976758
video_on	action	27	eeg	2	tbBI2945GEU	Polishing forniture	Housework	Household Activities	Housework	Interior cleaning	156	6	False	False	False	True	0.0
video_on	action	27	eeg	2	7tAPQ15kkig	Painting	Interior_maintenance&Repair&Decoration	Household Activities	Interior Maintenance, Repair, & Decoration	Interior arrangement, decoration, & repairs	217	7	True	False	False	True	0.0050687000002653
video_on	action	27	eeg	2	1aFNn73ny_w	Playing flauta	Arts&Entertainment	Socializing, Relaxing, and Leisure	Arts and Entertainment	Playing musical instruments	149	2	True	False	False	True	0.0051595000004454
video_on	action	27	eeg	2	npbbxsJE-pY	Paintball	Participating_in_sports&Exercise&Recreation	Sports, Exercise, and Recreation	Participating in Sports, Exercise, or Recreation	Playing sports	141	1	True	True	False	False	0.7922007000015583
video_on	action	27	eeg	2	NEUvbJyXkjc	Clean and jerk	Participating_in_sports&Exercise&Recreation	Sports, Exercise, and Recreation	Participating in Sports, Exercise, or Recreation	Weightlifting	84	1	True	True	True	True	0.0050847999991674
video_on	action	27	eeg	2	OCTyKnjpsb8	Getting a piercing	Grooming	Personal Care	Grooming	Washing, dressing and grooming	214	4	True	False	False	True	0.7162333000014769
video_on	action	27	eeg	2	-w3KSGlo1uY	Grooming dog	Animals&Pets	Household Activities	Animals and Pets	Care for animals and pets (not veterinary care)	317	8	True	False	False	True	0.3917134000002988
video_on	action	27	eeg	2	KN0KmLy9_-g	Disc dog	Animals&Pets	Household Activities	Animals and Pets	Walking / exercising / playing with animals	303	8	True	False	False	True	0.5260894999992161
video_on	action	27	eeg	2	vaEk2s7cXmk	Ballet	Arts&Entertainment	Socializing, Relaxing, and Leisure	Arts and Entertainment	Attending arts and entertainment	229	2	False	False	False	True	0.0
video_on	action	27	meg	3	jf5yo-rzLqA	Doing fencing	Participating_in_sports&Exercise&Recreation	Sports, Exercise, and Recreation	Participating in Sports, Exercise, or Recreation	Fencing	309	1	True	True	True	True	0.7229688997613266
video_on	action	27	meg	3	ulIW5kMy5NQ	Playing water polo	Participating_in_sports&Exercise&Recreation	Sports, Exercise, and Recreation	Participating in Sports, Exercise, or Recreation	Participating in water sports	130	1	True	True	True	True	0.6641161600127816
video_on	action	27	meg	3	x0qQt6yPlTc	Doing motocross	Participating_in_sports&Exercise&Recreation	Sports, Exercise, and Recreation	Participating in Sports, Exercise, or Recreation	Playing sports	243	1	True	True	False	False	0.9836328646633774
video_on	action	27	meg	3	maKGfmOZo54	Disc dog	Animals&Pets	Household Activities	Animals and Pets	Walking / exercising / playing with animals	303	8	False	False	False	True	0.0
video_on	action	27	meg	3	bzVOw4j1lss	Doing nails	Grooming	Personal Care	Grooming	Washing, dressing and grooming oneself	167	4	True	False	False	True	0.0053681692807003
video_on	action	27	meg	3	hG1SYDCD0Qc	Using the rowing machine	Participating_in_sports&Exercise&Recreation	Sports, Exercise, and Recreation	Participating in Sports, Exercise, or Recreation	Using cardiovascular equipment	384	1	True	True	True	True	0.6435321908211336
video_on	action	27	meg	3	0WLDsG5ECz0	BMX	Participating_in_sports&Exercise&Recreation	Sports, Exercise, and Recreation	Participating in Sports, Exercise, or Recreation	Biking	274	1	False	True	False	False	0.0
video_on	action	27	meg	3	e1jfhfqz1yY	Beach soccer	Participating_in_sports&Exercise&Recreation	Sports, Exercise, and Recreation	Participating in Sports, Exercise, or Recreation	Playing soccer	278	1	True	True	False	False	0.0051206350326538
video_on	action	27	meg	3	moUo5W7gMK4	Table soccer	Relaxing&Leisure	Socializing, Relaxing, and Leisure	Relaxing and Leisure	Playing games	379	3	True	False	False	True	0.3878889417974278
video_on	action	27	meg	3	BtxAEKVIrhw	Bungee jumping	Participating_in_sports&Exercise&Recreation	Sports, Exercise, and Recreation	Participating in Sports, Exercise, or Recreation	Playing sports	154	1	True	True	True	True	0.4842763023916632
video_on	action	27	meg	3	NNSxGErlaBA	Rock-paper-scissors	Relaxing&Leisure	Socializing, Relaxing, and Leisure	Relaxing and Leisure	Playing games	358	3	True	False	False	True	0.3712766872486099
video_on	action	27	meg	3	iTLz8qsCuc0	Snatch	Participating_in_sports&Exercise&Recreation	Sports, Exercise, and Recreation	Participating in Sports, Exercise, or Recreation	Weightlifting	79	1	True	True	True	True	0.556418604333885
video_on	action	27	meg	3	miwfMD_0Awg	Spinning	Participating_in_sports&Exercise&Recreation	Sports, Exercise, and Recreation	Participating in Sports, Exercise, or Recreation	Using cardiovascular equipment	117	1	False	True	False	False	0.0
video_on	action	27	meg	3	LPT_Qnhv-bM	Paintball	Participating_in_sports&Exercise&Recreation	Sports, Exercise, and Recreation	Participating in Sports, Exercise, or Recreation	Playing sports	141	1	True	True	False	False	0.964855290716514
video_on	action	27	meg	3	Mf0VM8kbnTo	Grooming horse	Animals&Pets	Household Activities	Animals and Pets	Walking / exercising / playing with animals	95	8	True	False	False	True	0.4042898865882307
video_on	action	27	meg	3	Bo1AW4bEVcQ	Camel ride	Participating_in_sports&Exercise&Recreation	Sports, Exercise, and Recreation	Participating in Sports, Exercise, or Recreation	Playing sports	291	1	True	True	False	False	0.8050303758354858
video_on	action	27	meg	3	O5LQhy8ozBQ	Cleaning shoes	Housework	Household Activities	Housework	Sewing, repairing, & maintaining textiles	134	6	True	False	False	True	0.6911991063971072
video_on	action	27	meg	3	R5a8gQyHm0I	Swimming	Participating_in_sports&Exercise&Recreation	Sports, Exercise, and Recreation	Participating in Sports, Exercise, or Recreation	Participating in water sports	377	1	True	True	True	True	0.4613615884445607
video_on	action	27	meg	3	domcxpTGGdE	Ping-pong	Participating_in_sports&Exercise&Recreation	Sports, Exercise, and Recreation	Participating in Sports, Exercise, or Recreation	Playing racquet sports	119	1	True	True	True	True	0.6448652524268255
video_on	action	27	meg	3	5fo4hZvw8H0	Shaving	Grooming	Personal Care	Grooming	Washing, dressing and grooming oneself	190	4	True	False	False	True	0.6630318398820236
video_on	action	27	meg	3	o3zkiTwo0lw	Vacuuming floor	Housework	Household Activities	Housework	Interior cleaning	160	6	True	False	False	True	0.574019183870405
video_on	action	27	meg	3	E29sb7u8Wq0	Preparing salad	Food&Drink_prep.&Presentation&Clean-up	Eating and drinking Activities	Food & Drink Prep., Presentation, & Clean-up	Food and drink preparation	96	5	True	False	False	True	0.7682069626171142
video_on	action	27	meg	3	wwZX8hU81ck	Decorating the Christmas tree	Interior_maintenance&Repair&Decoration	Household Activities	Interior Maintenance, Repair, & Decoration	Interior arrangement, decoration, & repairs	302	7	False	False	False	True	0.0
video_on	action	27	meg	3	HzE_YaLrlkw	Hitting a pinata	Relaxing&Leisure	Socializing, Relaxing, and Leisure	Relaxing and Leisure	Playing games	321	3	True	False	False	True	0.005356396199204
video_on	action	27	meg	3	dH_gpSfaA6E	Wrapping presents	Household_management	Household Activities	Household Management	Household & personal organization and planning	179	13	True	False	False	True	0.0053494531894102
video_on	action	27	meg	3	JmtNXX45ipw	Using the pommel horse	Participating_in_sports&Exercise&Recreation	Sports, Exercise, and Recreation	Participating in Sports, Exercise, or Recreation	Doing gymnastics	114	1	True	True	True	True	0.4701641423162073
video_on	action	27	meg	3	GMXyAZjXXkI	Mowing the lawn	Lawn&Garden&Houseplants	Household Activities	Lawn, Garden, and Houseplants	Lawn, garden, and houseplant care	218	9	True	False	False	True	0.6622376176528633
video_on	action	27	meg	3	gHkgVEdofxI	Plataform diving	Participating_in_sports&Exercise&Recreation	Sports, Exercise, and Recreation	Participating in Sports, Exercise, or Recreation	Participating in water sports	233	1	True	True	True	True	0.9430571970297024
video_on	action	27	meg	3	4jWYpl-eZdM	Playing field hockey	Participating_in_sports&Exercise&Recreation	Sports, Exercise, and Recreation	Participating in Sports, Exercise, or Recreation	Playing hockey	94	1	True	True	True	True	0.6550573176937178
video_on	action	27	meg	3	c_bTMaI8WYc	Playing ice hockey	Participating_in_sports&Exercise&Recreation	Sports, Exercise, and Recreation	Participating in Sports, Exercise, or Recreation	Playing hockey	347	1	True	True	False	False	3.8233343143947423
video_on	action	27	meg	3	WNDkXpOd-70	Tumbling	Participating_in_sports&Exercise&Recreation	Sports, Exercise, and Recreation	Participating in Sports, Exercise, or Recreation	Doing gymnastics	258	1	True	True	True	True	0.4555463484721258
video_on	action	27	meg	3	ivKSS7BAs8I	Doing karate	Participating_in_sports&Exercise&Recreation	Sports, Exercise, and Recreation	Participating in Sports, Exercise, or Recreation	Participating in martial arts	99	1	True	True	True	True	0.6309284792514518
video_on	action	27	meg	3	fXXERpShbak	Powerbocking	Participating_in_sports&Exercise&Recreation	Sports, Exercise, and Recreation	Participating in Sports, Exercise, or Recreation	Playing sports	350	1	True	True	True	True	0.4898624223424122
video_on	action	27	meg	3	iufHpb0OPZE	Horseback riding	Participating_in_sports&Exercise&Recreation	Sports, Exercise, and Recreation	Participating in Sports, Exercise, or Recreation	Participating in equestrian sports	175	1	False	True	False	False	0.0
video_on	action	27	meg	3	APXdsUK2mGM	Futsal	Participating_in_sports&Exercise&Recreation	Sports, Exercise, and Recreation	Participating in Sports, Exercise, or Recreation	Playing soccer	315	1	True	True	False	False	0.005111880833283
video_on	action	27	meg	3	sX6OIhqFZ8o	Carving jack-o-lanterns	Interior_maintenance&Repair&Decoration	Household Activities	Interior Maintenance, Repair, & Decoration	Interior arrangement, decoration, & repairs	295	7	True	False	False	True	0.005098296678625
video_on	action	27	meg	3	oV27az9VKbk	Fun sliding down	Arts&Entertainment	Socializing, Relaxing, and Leisure	Arts and Entertainment	Park activities	313	2	True	False	False	True	0.5464927890570834
video_on	action	27	meg	3	Fhiq2VIzbmI	Laying tile	Interior_maintenance&Repair&Decoration	Household Activities	Interior Maintenance, Repair, & Decoration	Interior arrangement, decoration, & repairs	330	7	True	False	False	True	0.9120043469592928
video_on	action	27	meg	3	MXJ-pFy38Wk	Javelin throw	Participating_in_sports&Exercise&Recreation	Sports, Exercise, and Recreation	Participating in Sports, Exercise, or Recreation	Playing sports	116	1	True	True	False	False	0.9687382553238422
video_on	action	27	meg	3	Na2APLzC8Qc	Shot put	Participating_in_sports&Exercise&Recreation	Sports, Exercise, and Recreation	Participating in Sports, Exercise, or Recreation	Playing sports	169	1	True	True	True	True	1.1063922659959644
video_on	action	27	meg	3	Ga3gtrUwIvk	Rollerblading	Participating_in_sports&Exercise&Recreation	Sports, Exercise, and Recreation	Participating in Sports, Exercise, or Recreation	Playing sports	359	1	True	True	True	True	0.5766185937682167
video_on	action	27	meg	3	ocdCHO4JX2s	Tango	Arts&Entertainment	Socializing, Relaxing, and Leisure	Arts and Entertainment	Dancing	73	2	False	False	False	True	0.0
video_on	action	27	meg	3	nyVkn_8Cm5E	Playing polo	Participating_in_sports&Exercise&Recreation	Sports, Exercise, and Recreation	Participating in Sports, Exercise, or Recreation	Participating in equestrian sports	75	1	True	True	True	True	0.4092556620016694
video_on	action	27	meg	3	p6yv-F_HRIA	Polishing forniture	Housework	Household Activities	Housework	Interior cleaning	156	6	True	False	True	False	0.9054299019044264
video_on	action	27	meg	3	FzOMMRm7MEI	Capoeira	Participating_in_sports&Exercise&Recreation	Sports, Exercise, and Recreation	Participating in Sports, Exercise, or Recreation	Participating in martial arts	294	1	True	True	False	False	0.4758637656923383
video_on	action	27	meg	3	yarZiJqsA20	Brushing teeth	Grooming	Personal Care	Grooming	Washing, dressing and grooming oneself	148	4	True	False	False	True	0.7213249111082405
video_on	action	27	meg	3	tLNd_YzlKq0	Pole vault	Participating_in_sports&Exercise&Recreation	Sports, Exercise, and Recreation	Participating in Sports, Exercise, or Recreation	Playing sports	106	1	True	True	False	False	0.6014930531382561
video_on	action	27	meg	3	52UQAYW4zdQ	Shoveling snow	Exterior_maintenance&Repair&Decoration	Household Activities	Exterior Maintenance, Repair, & Decoration	Exterior cleaning	183	12	True	False	False	True	0.4815754638984799
video_on	action	27	meg	3	OviWei5f-IQ	Bullfighting	Participating_in_sports&Exercise&Recreation	Sports, Exercise, and Recreation	Participating in Sports, Exercise, or Recreation	Participating in rodeo competitions	288	1	False	True	False	False	0.0
video_on	action	27	meg	3	qWVMLwGvqVs	Washing hands	Grooming	Personal Care	Grooming	Washing, dressing and grooming oneself	173	4	True	False	False	True	0.0050949761644005
video_on	action	27	meg	3	-WuTuP57yck	Playing racquetball	Participating_in_sports&Exercise&Recreation	Sports, Exercise, and Recreation	Participating in Sports, Exercise, or Recreation	Playing racquet sports	253	1	True	True	True	True	0.4821692438563332
video_on	action	27	meg	3	ZbY2s1AWMg8	Hula hoop	Relaxing&Leisure	Socializing, Relaxing, and Leisure	Relaxing and Leisure	Playing games	322	3	False	False	False	True	0.0
video_on	action	27	meg	3	fNabccWCjWg	Skateboarding	Participating_in_sports&Exercise&Recreation	Sports, Exercise, and Recreation	Participating in Sports, Exercise, or Recreation	Playing sports	176	1	True	True	True	True	0.3696954877814278
video_on	action	27	meg	3	xVQkf_TrX7U	Making a sandwich	Food&Drink_prep.&Presentation&Clean-up	Eating and drinking Activities	Food & Drink Prep., Presentation, & Clean-up	Food and drink preparation	129	5	True	False	False	True	0.658614563755691
video_on	action	27	meg	3	KX1qee0T9NA	Riding bumper cars	Relaxing&Leisure	Socializing, Relaxing, and Leisure	Relaxing and Leisure	Playing games	356	3	True	False	False	True	0.6506355135934427
video_on	action	27	meg	3	ilKtkmP6A1Q	Playing kickball	Participating_in_sports&Exercise&Recreation	Sports, Exercise, and Recreation	Participating in Sports, Exercise, or Recreation	Playing sports	257	1	False	True	False	False	0.0
video_on	action	27	meg	3	qHfdWeulI1Y	Mixing drinks	Food&Drink_prep.&Presentation&Clean-up	Eating and drinking Activities	Food & Drink Prep., Presentation, & Clean-up	Food and drink preparation	244	5	True	False	False	True	0.2270929082296788
video_on	action	27	meg	3	bJtFDTZSUVA	Hurling	Participating_in_sports&Exercise&Recreation	Sports, Exercise, and Recreation	Participating in Sports, Exercise, or Recreation	Playing sports	323	1	True	True	False	False	0.3892153621418401
video_on	action	27	meg	3	uwB9dooQlrk	Getting a piercing	Grooming	Personal Care	Grooming	Washing, dressing and grooming	214	4	True	False	False	True	0.4191588368266821
video_on	action	27	meg	3	ZS3yYQVJS68	Chopping wood	Interior_maintenance&Repair&Decoration	Household Activities	Interior Maintenance, Repair, & Decoration	Heating and cooling	110	7	True	False	False	True	2.612048570998013
video_on	action	27	meg	3	QkNkf4-CBJE	Cleaning windows	Housework	Household Activities	Housework	Interior cleaning	143	6	True	False	False	True	0.7636909747961909
video_on	action	27	meg	3	SydOGTXt1ck	Rope skipping	Participating_in_sports&Exercise&Recreation	Sports, Exercise, and Recreation	Participating in Sports, Exercise, or Recreation	Working out	361	1	False	True	False	False	0.0
video_on	action	27	meg	3	j_Sd7Y6QCHA	Breakdancing	Arts&Entertainment	Socializing, Relaxing, and Leisure	Arts and Entertainment	Dancing	236	2	False	False	False	True	0.0
video_on	action	27	meg	3	Nw0XD-bdOYM	Fixing the roof	Exterior_maintenance&Repair&Decoration	Household Activities	Exterior Maintenance, Repair, & Decoration	Exterior repair, improvements, & decoration	311	12	True	False	False	True	0.005157463485375
video_on	action	27	meg	3	zkQjhDsDMv4	Baton twirling	Participating_in_sports&Exercise&Recreation	Sports, Exercise, and Recreation	Participating in Sports, Exercise, or Recreation	Playing sports	277	1	True	True	False	False	0.8781688514864072
video_on	action	27	meg	3	0fzxa70Sn90	Drinking coffee	Food&Drink_prep.&Presentation&Clean-up	Eating and drinking Activities	Food & Drink Prep., Presentation, & Clean-up	Eating and Drinking	68	5	False	False	False	True	0.0
video_on	action	27	meg	3	HNS_1GimPE4	Blow-drying hair	Grooming	Personal Care	Grooming	Washing, dressing and grooming oneself	281	4	True	False	False	True	0.4766658365260809
video_on	action	27	meg	3	0hfRWlWOaYw	Waxing skis	Appliances&Tools&Toys	Household Activities	Appliances, Tools, and Toys	Appliance, tool, and toy set-up, repair, & maintenance (by self)	387	10	True	False	False	True	0.3733912925235927
video_on	action	27	meg	3	OTuO0rOnkb4	Hopscotch	Relaxing&Leisure	Socializing, Relaxing, and Leisure	Relaxing and Leisure	Playing games	241	3	True	False	False	True	0.5748076705494896
video_on	action	27	meg	3	mOy3REsnj84	Zumba	Participating_in_sports&Exercise&Recreation	Sports, Exercise, and Recreation	Participating in Sports, Exercise, or Recreation	Doing aerobics	69	1	False	True	False	False	0.0
video_on	action	27	meg	3	7Kh8LSbxsOc	Starting a campfire	Participating_in_sports&Exercise&Recreation	Sports, Exercise, and Recreation	Participating in Sports, Exercise, or Recreation	Playing sports	153	1	True	True	False	False	0.3432334895478561
video_on	action	27	meg	3	DLW8xtjnlHc	Playing squash	Participating_in_sports&Exercise&Recreation	Sports, Exercise, and Recreation	Participating in Sports, Exercise, or Recreation	Playing racquet sports	194	1	True	True	True	True	0.4933306165039539
video_on	action	27	meg	3	GsNyn-6DDJM	Brushing hair	Grooming	Personal Care	Grooming	Washing, dressing and grooming oneself	125	4	True	False	False	True	0.4237433493835851
video_on	action	27	meg	3	x3BNa_-RRZU	Playing accordion	Arts&Entertainment	Socializing, Relaxing, and Leisure	Arts and Entertainment	Playing musical instruments	267	2	False	False	False	True	0.0
video_on	action	27	meg	3	KTIBKJkkk5s	Cleaning sink	Interior_maintenance&Repair&Decoration	Household Activities	Interior Maintenance, Repair, & Decoration	Interior arrangement, decoration, & repairs	297	7	True	False	False	True	0.5365718037355691
video_on	action	27	meg	3	PBx3dlPdzpg	Welding	Appliances&Tools&Toys	Household Activities	Appliances, Tools, and Toys	Appliance, tool, and toy set-up, repair, & maintenance (by self)	388	10	True	False	False	True	0.3907715063542127
video_on	action	27	meg	3	EDD-U3runf4	Dodgeball	Participating_in_sports&Exercise&Recreation	Sports, Exercise, and Recreation	Participating in Sports, Exercise, or Recreation	Playing sports	161	1	True	True	True	True	0.9808514267206192
video_on	action	27	meg	3	mA-dM3ksnKw	Drum corps	Arts&Entertainment	Socializing, Relaxing, and Leisure	Arts and Entertainment	Playing musical instruments	307	2	True	False	False	True	0.3169743485050276
video_on	action	27	meg	3	1cs5HDGA1aQ	Arm wrestling	Participating_in_sports&Exercise&Recreation	Sports, Exercise, and Recreation	Participating in Sports, Exercise, or Recreation	Wrestling	271	1	True	True	False	False	0.5031012700637802
video_on	action	27	meg	3	jcE8jFUnHwg	Archery	Participating_in_sports&Exercise&Recreation	Sports, Exercise, and Recreation	Participating in Sports, Exercise, or Recreation	Playing sports	250	1	False	True	False	False	0.0
video_on	action	27	meg	3	X-VyOrCXT4k	Playing congas	Arts&Entertainment	Socializing, Relaxing, and Leisure	Arts and Entertainment	Playing musical instruments	345	2	True	False	False	True	0.3515669361222535
video_on	action	27	meg	3	W89t5731pfg	Getting a tattoo	Grooming	Personal Care	Grooming	Washing, dressing and grooming	187	4	False	False	False	True	0.0
video_on	action	27	meg	3	FU1ewCn7TM8	Belly dance	Arts&Entertainment	Socializing, Relaxing, and Leisure	Arts and Entertainment	Dancing	247	2	False	False	False	True	0.0
video_on	action	27	meg	3	RJNjWy9o9Og	Playing guitarra	Arts&Entertainment	Socializing, Relaxing, and Leisure	Arts and Entertainment	Playing musical instruments	251	2	True	False	False	True	0.0051511240890249
video_on	action	27	meg	3	wNRqzleN-44	Hand car wash	Vehicles	Household Activities	Vehicles	Vehicle repair and maintenance (by self)	318	11	True	False	False	True	0.6233427667757496
video_on	action	27	meg	3	NmmpNeirMDc	Doing step aerobics	Participating_in_sports&Exercise&Recreation	Sports, Exercise, and Recreation	Participating in Sports, Exercise, or Recreation	Doing aerobics	230	1	True	True	True	True	0.4556012890534475
video_on	action	27	meg	3	kGiEbYZgL00	Braiding hair	Grooming	Personal Care	Grooming	Washing, dressing and grooming oneself	285	4	False	False	False	True	0.0
video_on	action	27	meg	3	HJhSLT_9NX8	Hand washing clothes	Housework	Household Activities	Housework	Laundry	232	6	True	False	False	True	0.0050659965490922
video_on	action	27	meg	3	MPdp57goQOY	Using the balance beam	Participating_in_sports&Exercise&Recreation	Sports, Exercise, and Recreation	Participating in Sports, Exercise, or Recreation	Doing gymnastics	180	1	True	True	True	True	0.3861537880729884
video_on	action	27	meg	3	9E4c4t30HiU	High jump	Participating_in_sports&Exercise&Recreation	Sports, Exercise, and Recreation	Participating in Sports, Exercise, or Recreation	Playing sports	195	1	False	True	False	False	0.0
video_on	action	27	eeg	3	r3IayKRCY7s	Hammer throw	Participating_in_sports&Exercise&Recreation	Sports, Exercise, and Recreation	Participating in Sports, Exercise, or Recreation	Playing sports	224	1	True	True	True	True	0.00507259999722
video_on	action	27	eeg	3	iDmAAdvd6Ls	Playing lacrosse	Participating_in_sports&Exercise&Recreation	Sports, Exercise, and Recreation	Participating in Sports, Exercise, or Recreation	Playing racquet sports	209	1	True	True	True	True	0.4916615999973146
video_on	action	27	eeg	3	u78MA7oT7w8	Grooming horse	Animals&Pets	Household Activities	Animals and Pets	Walking / exercising / playing with animals	95	8	True	False	False	True	0.460350199999084
video_on	action	27	eeg	3	m_TzleA05PE	BMX	Participating_in_sports&Exercise&Recreation	Sports, Exercise, and Recreation	Participating in Sports, Exercise, or Recreation	Biking	274	1	True	True	True	True	0.8993998999976611
video_on	action	27	eeg	3	5StDMC8t3Ks	Assembling bicycle	Vehicles	Household Activities	Vehicles	Vehicle repair and maintenance (by self)	273	11	True	False	True	False	1.188370899999427
video_on	action	27	eeg	3	WHRKfBBX8Ek	Zumba	Participating_in_sports&Exercise&Recreation	Sports, Exercise, and Recreation	Participating in Sports, Exercise, or Recreation	Doing aerobics	69	1	True	True	True	True	0.0050854000000981
video_on	action	27	eeg	3	o9cZm0BVUQA	Belly dance	Arts&Entertainment	Socializing, Relaxing, and Leisure	Arts and Entertainment	Dancing	247	2	True	False	True	False	0.0051222999973106
video_on	action	27	eeg	3	t9n5C3R3BrQ	Throwing darts	Relaxing&Leisure	Socializing, Relaxing, and Leisure	Relaxing and Leisure	Playing games	380	3	True	False	False	True	0.8442313999985345
video_on	action	27	eeg	3	w2xQsd9P3UI	Rope skipping	Participating_in_sports&Exercise&Recreation	Sports, Exercise, and Recreation	Participating in Sports, Exercise, or Recreation	Working out	361	1	True	True	True	True	0.0050793000009434
