event_name	task	subject	session	run	video_id	class_name	raw_superclass_name	superclass_level0	superclass_level1	superclass_level2	class_id	superclass_id	is_resp	stim_is_sports	resp_is_sports	resp_is_right	resp_time
video_on	action	21	meg	1	yYQhyeb9C9I	High jump	Participating_in_sports&Exercise&Recreation	Sports, Exercise, and Recreation	Participating in Sports, Exercise, or Recreation	Playing sports	195	1	True	True	True	True	0.4729482970724348
video_on	action	21	meg	1	2xGJbwPOBJc	Spinning	Participating_in_sports&Exercise&Recreation	Sports, Exercise, and Recreation	Participating in Sports, Exercise, or Recreation	Using cardiovascular equipment	117	1	True	True	True	True	0.410403978661634
video_on	action	21	meg	1	TOvsiwaKNQc	Pole vault	Participating_in_sports&Exercise&Recreation	Sports, Exercise, and Recreation	Participating in Sports, Exercise, or Recreation	Playing sports	106	1	True	True	True	True	0.3762669142015511
video_on	action	21	meg	1	rKltgE2hsW4	Clean and jerk	Participating_in_sports&Exercise&Recreation	Sports, Exercise, and Recreation	Participating in Sports, Exercise, or Recreation	Weightlifting	84	1	True	True	True	True	0.3751152769254986
video_on	action	21	meg	1	0a4eJS3C6Co	Scuba diving	Participating_in_sports&Exercise&Recreation	Sports, Exercise, and Recreation	Participating in Sports, Exercise, or Recreation	Participating in water sports	364	1	True	True	True	True	0.3846332646498922
video_on	action	21	meg	1	U2n-a5NcN14	Welding	Appliances&Tools&Toys	Household Activities	Appliances, Tools, and Toys	Appliance, tool, and toy set-up, repair, & maintenance (by self)	388	10	True	False	False	True	0.384999735862948
video_on	action	21	meg	1	37ijmLQdMjw	Using parallel bars	Participating_in_sports&Exercise&Recreation	Sports, Exercise, and Recreation	Participating in Sports, Exercise, or Recreation	Doing gymnastics	88	1	True	True	True	True	0.3690515972702997
video_on	action	21	meg	1	4o1k3KUHz6E	Playing kickball	Participating_in_sports&Exercise&Recreation	Sports, Exercise, and Recreation	Participating in Sports, Exercise, or Recreation	Playing sports	257	1	True	True	True	True	0.4570348736306187
video_on	action	21	meg	1	g3cA_E_bl68	Capoeira	Participating_in_sports&Exercise&Recreation	Sports, Exercise, and Recreation	Participating in Sports, Exercise, or Recreation	Participating in martial arts	294	1	True	True	True	True	0.5132066985243
video_on	action	21	meg	1	klqJsZazHZQ	Paintball	Participating_in_sports&Exercise&Recreation	Sports, Exercise, and Recreation	Participating in Sports, Exercise, or Recreation	Playing sports	141	1	True	True	False	False	0.515450504492037
video_on	action	21	meg	1	JQanx-Z0nn4	Hitting a pinata	Relaxing&Leisure	Socializing, Relaxing, and Leisure	Relaxing and Leisure	Playing games	321	3	True	False	False	True	0.5137422173866071
video_on	action	21	meg	1	3Dc6n65CIN4	Getting a piercing	Grooming	Personal Care	Grooming	Washing, dressing and grooming	214	4	True	False	False	True	0.4337385949329473
video_on	action	21	meg	1	scCmVcEFTUo	Raking leaves	Lawn&Garden&Houseplants	Household Activities	Lawn, Garden, and Houseplants	Lawn, garden, and houseplant care	354	9	True	False	False	True	0.3699191740888636
video_on	action	21	meg	1	nf9o9d7RC6o	Javelin throw	Participating_in_sports&Exercise&Recreation	Sports, Exercise, and Recreation	Participating in Sports, Exercise, or Recreation	Playing sports	116	1	True	True	True	True	0.4418522795021999
video_on	action	21	meg	1	KlGJcoTanzQ	Triple jump	Participating_in_sports&Exercise&Recreation	Sports, Exercise, and Recreation	Participating in Sports, Exercise, or Recreation	Playing sports	155	1	True	True	True	True	0.4589689601270947
video_on	action	21	meg	1	TqfSOwONxjA	Ballet	Arts&Entertainment	Socializing, Relaxing, and Leisure	Arts and Entertainment	Attending arts and entertainment	229	2	True	False	False	True	0.4423570075450698
video_on	action	21	meg	1	f_3ksf9FrxA	Using the pommel horse	Participating_in_sports&Exercise&Recreation	Sports, Exercise, and Recreation	Participating in Sports, Exercise, or Recreation	Doing gymnastics	114	1	True	True	True	True	0.3546469243156025
video_on	action	21	meg	1	tLweETgsrEQ	Hand washing clothes	Housework	Household Activities	Housework	Laundry	232	6	True	False	False	True	0.3466177635855274
video_on	action	21	meg	1	tGF17QGyQ6M	Camel ride	Participating_in_sports&Exercise&Recreation	Sports, Exercise, and Recreation	Participating in Sports, Exercise, or Recreation	Playing sports	291	1	True	True	False	False	0.3547498622647254
video_on	action	21	meg	1	_ik6Kou7YbU	Playing drums	Arts&Entertainment	Socializing, Relaxing, and Leisure	Arts and Entertainment	Playing musical instruments	346	2	True	False	False	True	0.354805104638217
video_on	action	21	meg	1	oqhh0ST4DWA	Doing kickboxing	Participating_in_sports&Exercise&Recreation	Sports, Exercise, and Recreation	Participating in Sports, Exercise, or Recreation	Participating in martial arts	70	1	True	True	True	True	0.3812357083079405
video_on	action	21	meg	1	kSgMo6LFeh8	Playing squash	Participating_in_sports&Exercise&Recreation	Sports, Exercise, and Recreation	Participating in Sports, Exercise, or Recreation	Playing racquet sports	194	1	True	True	True	True	0.3472233165084617
video_on	action	21	meg	1	ra-NzZN9BUk	Painting	Interior_maintenance&Repair&Decoration	Household Activities	Interior Maintenance, Repair, & Decoration	Interior arrangement, decoration, & repairs	217	7	True	False	False	True	0.3715468616865109
video_on	action	21	meg	1	wdWzJDW4YqY	Doing step aerobics	Participating_in_sports&Exercise&Recreation	Sports, Exercise, and Recreation	Participating in Sports, Exercise, or Recreation	Doing aerobics	230	1	True	True	True	True	0.4216969669505488
video_on	action	21	meg	1	O6OU4B5vsTY	Playing congas	Arts&Entertainment	Socializing, Relaxing, and Leisure	Arts and Entertainment	Playing musical instruments	345	2	True	False	False	True	0.3556005343125434
video_on	action	21	meg	1	Mi3BbF5KrMM	Snow tubing	Participating_in_sports&Exercise&Recreation	Sports, Exercise, and Recreation	Participating in Sports, Exercise, or Recreation	Skiing, ice skating, snowboarding	372	1	True	True	False	False	0.4541921558848116
video_on	action	21	meg	1	tEWZm3VPNl8	Playing badminton	Participating_in_sports&Exercise&Recreation	Sports, Exercise, and Recreation	Participating in Sports, Exercise, or Recreation	Playing racquet sports	268	1	True	True	True	True	0.3800738074205583
video_on	action	21	meg	1	UfnQJ1EMI0c	Tug of war	Relaxing&Leisure	Socializing, Relaxing, and Leisure	Relaxing and Leisure	Playing games	382	3	True	False	False	True	0.4682910336850909
video_on	action	21	meg	1	930AihL3Q90	Playing rubik cube	Relaxing&Leisure	Socializing, Relaxing, and Leisure	Relaxing and Leisure	Playing games	349	3	True	False	True	False	0.3723311221401673
video_on	action	21	meg	1	zKP_Y_BPIMs	Skateboarding	Participating_in_sports&Exercise&Recreation	Sports, Exercise, and Recreation	Participating in Sports, Exercise, or Recreation	Playing sports	176	1	True	True	True	True	0.5180079543060856
video_on	action	21	meg	1	GoobfHzyWAA	Using the monkey bar	Arts&Entertainment	Socializing, Relaxing, and Leisure	Arts and Entertainment	Park activities	383	2	True	False	False	True	0.5480637249420397
video_on	action	21	meg	1	ie7L2pMhMis	Baking cookies	Food&Drink_prep.&Presentation&Clean-up	Eating and drinking Activities	Food & Drink Prep., Presentation, & Clean-up	Food and drink preparation	276	5	True	False	False	True	0.4206349853193387
video_on	action	21	meg	1	UNV4eYlZm8U	Plataform diving	Participating_in_sports&Exercise&Recreation	Sports, Exercise, and Recreation	Participating in Sports, Exercise, or Recreation	Participating in water sports	233	1	True	True	True	True	0.5351415396871744
video_on	action	21	meg	1	xoE0XTKP5cU	Shoveling snow	Exterior_maintenance&Repair&Decoration	Household Activities	Exterior Maintenance, Repair, & Decoration	Exterior cleaning	183	12	True	False	False	True	0.3712211430247407
video_on	action	21	meg	1	pLldIyuNHJU	Playing lacrosse	Participating_in_sports&Exercise&Recreation	Sports, Exercise, and Recreation	Participating in Sports, Exercise, or Recreation	Playing racquet sports	209	1	True	True	True	True	0.2946585463505471
video_on	action	21	meg	1	v1UIOvyhGps	Playing pool	Relaxing&Leisure	Socializing, Relaxing, and Leisure	Relaxing and Leisure	Playing games	348	3	True	False	True	False	0.3504231474507833
video_on	action	21	meg	1	5_OSmkFpgRo	Spread mulch	Lawn&Garden&Houseplants	Household Activities	Lawn, Garden, and Houseplants	Lawn, garden, and houseplant care	374	9	True	False	False	True	0.453633392957272
video_on	action	21	meg	1	HGINhkdp7hY	Mowing the lawn	Lawn&Garden&Houseplants	Household Activities	Lawn, Garden, and Houseplants	Lawn, garden, and houseplant care	218	9	True	False	False	True	0.3971129072451731
video_on	action	21	meg	1	uktUEay6cD8	Sailing	Participating_in_sports&Exercise&Recreation	Sports, Exercise, and Recreation	Participating in Sports, Exercise, or Recreation	Participating in water sports	240	1	True	True	True	True	0.3280819881183561
video_on	action	21	meg	1	vGX6ujHC7A4	Bathing dog	Animals&Pets	Household Activities	Animals and Pets	Care for animals and pets (not veterinary care)	90	8	True	False	False	True	0.3179373165185097
video_on	action	21	meg	1	FYSQFZLcYpg	Mooping floor	Housework	Household Activities	Housework	Interior cleaning	335	6	True	False	False	True	0.3337016157602193
video_on	action	21	meg	1	tXTA1X2ZpFI	Disc dog	Animals&Pets	Household Activities	Animals and Pets	Walking / exercising / playing with animals	303	8	True	False	False	True	0.3823574603593442
video_on	action	21	meg	1	jFjpd-K3s1M	Tango	Arts&Entertainment	Socializing, Relaxing, and Leisure	Arts and Entertainment	Dancing	73	2	True	False	True	False	0.4212707253172993
video_on	action	21	meg	1	jibGtTVnenQ	Running a marathon	Participating_in_sports&Exercise&Recreation	Sports, Exercise, and Recreation	Participating in Sports, Exercise, or Recreation	Running	362	1	True	True	True	True	0.3281477959681069
video_on	action	21	meg	1	CgahRMAuNes	Kneeling	Participating_in_sports&Exercise&Recreation	Sports, Exercise, and Recreation	Participating in Sports, Exercise, or Recreation	Working out	328	1	True	True	True	True	0.4641967594216112
video_on	action	21	meg	1	WsqwUcgsJUQ	Building sandcastles	Arts&Entertainment	Socializing, Relaxing, and Leisure	Arts and Entertainment	Beach activities	286	2	True	False	False	True	0.4470293644844787
video_on	action	21	meg	1	qsT4Y4zb79A	Doing motocross	Participating_in_sports&Exercise&Recreation	Sports, Exercise, and Recreation	Participating in Sports, Exercise, or Recreation	Playing sports	243	1	True	True	True	True	0.622649067590828
video_on	action	21	meg	1	oiT-oZOrTs0	Doing crunches	Participating_in_sports&Exercise&Recreation	Sports, Exercise, and Recreation	Participating in Sports, Exercise, or Recreation	Working out	305	1	True	True	True	True	0.3827224222040968
video_on	action	21	meg	1	mpxuHAac4k0	Bungee jumping	Participating_in_sports&Exercise&Recreation	Sports, Exercise, and Recreation	Participating in Sports, Exercise, or Recreation	Playing sports	154	1	True	True	False	False	0.7108910472597927
video_on	action	21	meg	1	l4jN1q3D044	Cleaning sink	Interior_maintenance&Repair&Decoration	Household Activities	Interior Maintenance, Repair, & Decoration	Interior arrangement, decoration, & repairs	297	7	True	False	False	True	0.5675208102184115
video_on	action	21	meg	1	lg5XjhiQNg4	Drinking coffee	Food&Drink_prep.&Presentation&Clean-up	Eating and drinking Activities	Food & Drink Prep., Presentation, & Clean-up	Eating and Drinking	68	5	True	False	False	True	0.3998161606577923
video_on	action	21	meg	1	WYvGFOsssKE	Preparing pasta	Food&Drink_prep.&Presentation&Clean-up	Eating and drinking Activities	Food & Drink Prep., Presentation, & Clean-up	Food and drink preparation	186	5	True	False	False	True	0.6495279494702118
video_on	action	21	meg	1	ytbHhPh6Ayg	Laying tile	Interior_maintenance&Repair&Decoration	Household Activities	Interior Maintenance, Repair, & Decoration	Interior arrangement, decoration, & repairs	330	7	True	False	False	True	0.7760311530728359
video_on	action	21	meg	1	otcIi-CXy0Q	Fixing the roof	Exterior_maintenance&Repair&Decoration	Household Activities	Exterior Maintenance, Repair, & Decoration	Exterior repair, improvements, & decoration	311	12	True	False	False	True	0.654993019241374
video_on	action	21	meg	1	IytsybWRN4Y	Playing blackjack	Arts&Entertainment	Socializing, Relaxing, and Leisure	Arts and Entertainment	Attending gambling establishments	343	2	True	False	False	True	0.3843159983953228
video_on	action	21	meg	1	YJZsRkf0LzM	Blow-drying hair	Grooming	Personal Care	Grooming	Washing, dressing and grooming oneself	281	4	True	False	False	True	0.664078124173102
video_on	action	21	meg	1	Ja9W6tD2A1U	Brushing teeth	Grooming	Personal Care	Grooming	Washing, dressing and grooming oneself	148	4	True	False	False	True	0.4241877032909542
video_on	action	21	meg	1	IZpa0CYAAvY	Walking the dog	Animals&Pets	Household Activities	Animals and Pets	Walking / exercising / playing with animals	221	8	True	False	False	True	0.4401980272814398
video_on	action	21	meg	1	SexDyV_iVu8	Grooming horse	Animals&Pets	Household Activities	Animals and Pets	Walking / exercising / playing with animals	95	8	True	False	False	True	0.4957232448214199
video_on	action	21	meg	1	76xTdNvYZ0g	Fun sliding down	Arts&Entertainment	Socializing, Relaxing, and Leisure	Arts and Entertainment	Park activities	313	2	True	False	True	False	0.6825136785337236
video_on	action	21	meg	1	MRH1SjB0Wcw	Ping-pong	Participating_in_sports&Exercise&Recreation	Sports, Exercise, and Recreation	Participating in Sports, Exercise, or Recreation	Playing racquet sports	119	1	True	True	True	True	0.3286618820129661
video_on	action	21	meg	1	iH51SmAkOvQ	Smoking hookah	Relaxing&Leisure	Socializing, Relaxing, and Leisure	Relaxing and Leisure	Tobacco and drug use	189	3	True	False	False	True	0.4717112303624162
video_on	action	21	meg	1	Y-25aHUJFQY	Breakdancing	Arts&Entertainment	Socializing, Relaxing, and Leisure	Arts and Entertainment	Dancing	236	2	True	False	False	True	0.4672018836863572
video_on	action	21	meg	1	kuNYdxx69W4	Using the rowing machine	Participating_in_sports&Exercise&Recreation	Sports, Exercise, and Recreation	Participating in Sports, Exercise, or Recreation	Using cardiovascular equipment	384	1	True	True	True	True	0.5232737893093145
video_on	action	21	meg	1	5Gvm9vZwdAY	Chopping wood	Interior_maintenance&Repair&Decoration	Household Activities	Interior Maintenance, Repair, & Decoration	Heating and cooling	110	7	True	False	False	True	0.4100302625593031
video_on	action	21	meg	1	1Y5N5gFfpmM	Playing racquetball	Participating_in_sports&Exercise&Recreation	Sports, Exercise, and Recreation	Participating in Sports, Exercise, or Recreation	Playing racquet sports	253	1	True	True	True	True	0.3477461567963473
video_on	action	21	meg	1	LBOU8PzuJwQ	Painting fence	Exterior_maintenance&Repair&Decoration	Household Activities	Exterior Maintenance, Repair, & Decoration	Painting fence	336	12	True	False	False	True	0.5457562241936103
video_on	action	21	meg	1	hkzSg0sH8lM	Belly dance	Arts&Entertainment	Socializing, Relaxing, and Leisure	Arts and Entertainment	Dancing	247	2	True	False	False	True	0.6978034368075896
video_on	action	21	meg	1	0UVUW11FENs	Playing guitarra	Arts&Entertainment	Socializing, Relaxing, and Leisure	Arts and Entertainment	Playing musical instruments	251	2	True	False	False	True	0.5219032956665615
video_on	action	21	meg	1	JSpblwHEIiU	Sumo	Participating_in_sports&Exercise&Recreation	Sports, Exercise, and Recreation	Participating in Sports, Exercise, or Recreation	Wrestling	375	1	True	True	True	True	0.354850083385827
video_on	action	21	meg	1	DS2Pfqr-Tk4	Brushing hair	Grooming	Personal Care	Grooming	Washing, dressing and grooming oneself	125	4	True	False	False	True	0.3462884225009475
video_on	action	21	meg	1	shmCsnydcO4	Playing beach volleyball	Participating_in_sports&Exercise&Recreation	Sports, Exercise, and Recreation	Participating in Sports, Exercise, or Recreation	Playing volleyball	341	1	True	True	True	True	0.3167005516734207
video_on	action	21	meg	1	An9uOHY95IM	Hopscotch	Relaxing&Leisure	Socializing, Relaxing, and Leisure	Relaxing and Leisure	Playing games	241	3	True	False	True	False	0.5493898435524898
video_on	action	21	meg	1	c5nbwEYH4sY	Playing bagpipes	Arts&Entertainment	Socializing, Relaxing, and Leisure	Arts and Entertainment	Playing musical instruments	136	2	True	False	False	True	0.4906789829983609
video_on	action	21	meg	1	3cm6s4rIuZ8	Playing harmonica	Arts&Entertainment	Socializing, Relaxing, and Leisure	Arts and Entertainment	Playing musical instruments	100	2	True	False	False	True	0.6107921845541568
video_on	action	21	meg	1	k7cXKu8zzlY	Carving jack-o-lanterns	Interior_maintenance&Repair&Decoration	Household Activities	Interior Maintenance, Repair, & Decoration	Interior arrangement, decoration, & repairs	295	7	True	False	False	True	0.4591923445550492
video_on	action	21	meg	1	VoEZb3gbJqw	Table soccer	Relaxing&Leisure	Socializing, Relaxing, and Leisure	Relaxing and Leisure	Playing games	379	3	True	False	False	True	0.4053397933603264
video_on	action	21	meg	1	HsRS2sdustQ	Cheerleading	Arts&Entertainment	Socializing, Relaxing, and Leisure	Arts and Entertainment	Dancing	140	2	True	False	False	True	0.5153517927392386
video_on	action	21	meg	1	PXFYAtjipF0	Doing fencing	Participating_in_sports&Exercise&Recreation	Sports, Exercise, and Recreation	Participating in Sports, Exercise, or Recreation	Fencing	309	1	True	True	True	True	0.3882991841819603
video_on	action	21	meg	1	tfNvhoDrK1M	Cleaning shoes	Housework	Household Activities	Housework	Sewing, repairing, & maintaining textiles	134	6	True	False	False	True	0.3557363761792658
video_on	action	21	meg	1	hrJ3ANSmroE	Hand car wash	Vehicles	Household Activities	Vehicles	Vehicle repair and maintenance (by self)	318	11	True	False	False	True	0.3718580905115232
video_on	action	21	meg	1	HoW9cEZ8THU	Wakeboarding	Participating_in_sports&Exercise&Recreation	Sports, Exercise, and Recreation	Participating in Sports, Exercise, or Recreation	Participating in water sports	385	1	True	True	True	True	0.4769290678959805
video_on	action	21	meg	1	EMepU-ExId4	Using the balance beam	Participating_in_sports&Exercise&Recreation	Sports, Exercise, and Recreation	Participating in Sports, Exercise, or Recreation	Doing gymnastics	180	1	True	True	True	True	0.4382277162658283
video_on	action	21	meg	1	5V8IIHZeMjg	Longboarding	Participating_in_sports&Exercise&Recreation	Sports, Exercise, and Recreation	Participating in Sports, Exercise, or Recreation	Playing sports	331	1	True	True	True	True	0.2924259095743764
video_on	action	21	meg	1	5e9Lsh3gnXs	Rollerblading	Participating_in_sports&Exercise&Recreation	Sports, Exercise, and Recreation	Participating in Sports, Exercise, or Recreation	Playing sports	359	1	True	True	True	True	0.6117992257059086
video_on	action	21	meg	1	O8JVA-scYlM	Making a sandwich	Food&Drink_prep.&Presentation&Clean-up	Eating and drinking Activities	Food & Drink Prep., Presentation, & Clean-up	Food and drink preparation	129	5	True	False	False	True	0.3081231934920652
video_on	action	21	meg	1	6A4wSQsgtkQ	Wrapping presents	Household_management	Household Activities	Household Management	Household & personal organization and planning	179	13	True	False	False	True	0.4202310821274295
video_on	action	21	meg	1	Uz8MX4TGswg	Cutting the grass	Lawn&Garden&Houseplants	Household Activities	Lawn, Garden, and Houseplants	Lawn, garden, and houseplant care	301	9	True	False	False	True	0.460950138483895
video_on	action	21	meg	1	SKJk0y_Bp6U	Kayaking	Participating_in_sports&Exercise&Recreation	Sports, Exercise, and Recreation	Participating in Sports, Exercise, or Recreation	Participating in water sports	254	1	True	True	True	True	0.461116469319677
video_on	action	21	meg	1	8imlYARz9Ko	Hula hoop	Relaxing&Leisure	Socializing, Relaxing, and Leisure	Relaxing and Leisure	Playing games	322	3	False	False	False	True	0.0
video_on	action	21	eeg	1	kkECR7Ug4K4	Springboard diving	Participating_in_sports&Exercise&Recreation	Sports, Exercise, and Recreation	Participating in Sports, Exercise, or Recreation	Participating in water sports	193	1	True	True	True	True	0.0050809000094886
video_on	action	21	eeg	1	30sY0R-CVrA	Mooping floor	Housework	Household Activities	Housework	Interior cleaning	335	6	True	False	False	True	0.0051115999813191
video_on	action	21	eeg	1	S6cl6WM1tdE	Slacklining	Relaxing&Leisure	Socializing, Relaxing, and Leisure	Relaxing and Leisure	Playing games	371	3	True	False	True	False	0.5045420000096783
video_on	action	21	eeg	1	tT4zVGXAT80	Snatch	Participating_in_sports&Exercise&Recreation	Sports, Exercise, and Recreation	Participating in Sports, Exercise, or Recreation	Weightlifting	79	1	True	True	True	True	0.4917337999795563
video_on	action	21	eeg	1	X7TulDGiMyk	Walking the dog	Animals&Pets	Household Activities	Animals and Pets	Walking / exercising / playing with animals	221	8	True	False	False	True	0.6283776999916881
video_on	action	21	eeg	1	y2bW_-g3CCo	Doing kickboxing	Participating_in_sports&Exercise&Recreation	Sports, Exercise, and Recreation	Participating in Sports, Exercise, or Recreation	Participating in martial arts	70	1	True	True	True	True	0.0050685000023804
video_on	action	21	eeg	1	hTmZUcEYN4Q	Shoveling snow	Exterior_maintenance&Repair&Decoration	Household Activities	Exterior Maintenance, Repair, & Decoration	Exterior cleaning	183	12	True	False	False	True	0.0050701999862212
video_on	action	21	eeg	1	xFRAo-MV0r4	Painting fence	Exterior_maintenance&Repair&Decoration	Household Activities	Exterior Maintenance, Repair, & Decoration	Painting fence	336	12	True	False	False	True	0.4870300999900792
video_on	action	21	eeg	1	c5ejHYAclM8	Table soccer	Relaxing&Leisure	Socializing, Relaxing, and Leisure	Relaxing and Leisure	Playing games	379	3	True	False	True	False	0.0050803999765776
video_on	action	21	eeg	1	KkDeiKvqWQM	Horseback riding	Participating_in_sports&Exercise&Recreation	Sports, Exercise, and Recreation	Participating in Sports, Exercise, or Recreation	Participating in equestrian sports	175	1	True	True	True	True	0.0050680999993346
video_on	action	21	eeg	1	pO1nIDLzZA4	Playing ice hockey	Participating_in_sports&Exercise&Recreation	Sports, Exercise, and Recreation	Participating in Sports, Exercise, or Recreation	Playing hockey	347	1	True	True	True	True	0.0050701999862212
video_on	action	21	eeg	1	p3wuv-sg_X0	Building sandcastles	Arts&Entertainment	Socializing, Relaxing, and Leisure	Arts and Entertainment	Beach activities	286	2	True	False	False	True	0.0050718999991659
video_on	action	21	eeg	1	_eUdithAjj0	Spread mulch	Lawn&Garden&Houseplants	Household Activities	Lawn, Garden, and Houseplants	Lawn, garden, and houseplant care	374	9	True	False	False	True	0.0050719999999273
video_on	action	21	eeg	1	cLQGp7-oVQ8	Having an ice cream	Food&Drink_prep.&Presentation&Clean-up	Eating and drinking Activities	Food & Drink Prep., Presentation, & Clean-up	Eating and Drinking	320	5	True	False	False	True	0.0050728000060189
video_on	action	21	eeg	1	M4R85xMKI5c	Riding bumper cars	Relaxing&Leisure	Socializing, Relaxing, and Leisure	Relaxing and Leisure	Playing games	356	3	True	False	True	False	0.0050717999984044
video_on	action	21	eeg	1	cSy80ESMYfU	BMX	Participating_in_sports&Exercise&Recreation	Sports, Exercise, and Recreation	Participating in Sports, Exercise, or Recreation	Biking	274	1	True	True	True	True	0.0050867999962065
video_on	action	21	eeg	1	DzmAVb15Rp8	Waterskiing	Participating_in_sports&Exercise&Recreation	Sports, Exercise, and Recreation	Participating in Sports, Exercise, or Recreation	Participating in water sports	386	1	True	True	True	True	0.0050668999901972
video_on	action	21	eeg	1	ZmhGp98dMO0	Getting a tattoo	Grooming	Personal Care	Grooming	Washing, dressing and grooming	187	4	True	False	False	True	0.0050790999957825
video_on	action	21	eeg	1	PcdQ3erSrqs	Using the monkey bar	Arts&Entertainment	Socializing, Relaxing, and Leisure	Arts and Entertainment	Park activities	383	2	True	False	True	False	0.0050742999883368
video_on	action	21	eeg	1	s_1T1UOqusE	Playing piano	Arts&Entertainment	Socializing, Relaxing, and Leisure	Arts and Entertainment	Playing musical instruments	197	2	True	False	False	True	0.0050718999991659
video_on	action	21	eeg	1	mq7-pyo_AsM	Welding	Appliances&Tools&Toys	Household Activities	Appliances, Tools, and Toys	Appliance, tool, and toy set-up, repair, & maintenance (by self)	388	10	True	False	False	True	0.005072600004496
video_on	action	21	eeg	1	YoJh-UlJ928	Chopping wood	Interior_maintenance&Repair&Decoration	Household Activities	Interior Maintenance, Repair, & Decoration	Heating and cooling	110	7	True	False	False	True	0.0050822999910451
video_on	action	21	eeg	1	x5gm_HtoURA	Drinking coffee	Food&Drink_prep.&Presentation&Clean-up	Eating and drinking Activities	Food & Drink Prep., Presentation, & Clean-up	Eating and Drinking	68	5	True	False	False	True	0.0051545999886002
video_on	action	21	eeg	1	OVNNQjgwKk0	Brushing hair	Grooming	Personal Care	Grooming	Washing, dressing and grooming oneself	125	4	True	False	False	True	0.0050718999991659
video_on	action	21	eeg	1	NoZNTvVAi3c	Kayaking	Participating_in_sports&Exercise&Recreation	Sports, Exercise, and Recreation	Participating in Sports, Exercise, or Recreation	Participating in water sports	254	1	True	True	True	True	0.0050692999793682
video_on	action	21	eeg	1	ULauy67nLg0	Doing step aerobics	Participating_in_sports&Exercise&Recreation	Sports, Exercise, and Recreation	Participating in Sports, Exercise, or Recreation	Doing aerobics	230	1	True	True	True	True	0.0050670999917201
video_on	action	21	eeg	1	0v8T4kZhREc	Putting on makeup	Grooming	Personal Care	Grooming	Washing, dressing and grooming oneself	76	4	True	False	False	True	0.0050777999858837
video_on	action	21	eeg	1	49ybFSf7zWg	Playing accordion	Arts&Entertainment	Socializing, Relaxing, and Leisure	Arts and Entertainment	Playing musical instruments	267	2	True	False	False	True	0.0050713999953586
video_on	action	21	eeg	1	eKxvYt21pSw	Rock-paper-scissors	Relaxing&Leisure	Socializing, Relaxing, and Leisure	Relaxing and Leisure	Playing games	358	3	True	False	False	True	0.0050700000138022
video_on	action	21	eeg	1	iUfd-BqDvto	Assembling bicycle	Vehicles	Household Activities	Vehicles	Vehicle repair and maintenance (by self)	273	11	True	False	True	False	0.005071699997643
video_on	action	21	eeg	1	wb1a9oAsn78	Cricket	Participating_in_sports&Exercise&Recreation	Sports, Exercise, and Recreation	Participating in Sports, Exercise, or Recreation	Playing sports	82	1	True	True	True	True	0.0050718999991659
video_on	action	21	eeg	1	1KeTmx4wX-s	Snow tubing	Participating_in_sports&Exercise&Recreation	Sports, Exercise, and Recreation	Participating in Sports, Exercise, or Recreation	Skiing, ice skating, snowboarding	372	1	True	True	True	True	0.0050719999999273
video_on	action	21	eeg	1	wt0k0njz2A0	Triple jump	Participating_in_sports&Exercise&Recreation	Sports, Exercise, and Recreation	Participating in Sports, Exercise, or Recreation	Playing sports	155	1	True	True	True	True	0.0050709000206552
video_on	action	21	eeg	1	ZvCx3YpBdoY	Cutting the grass	Lawn&Garden&Houseplants	Household Activities	Lawn, Garden, and Houseplants	Lawn, garden, and houseplant care	301	9	True	False	False	True	0.0051264000067021
video_on	action	21	eeg	1	WamHwEKX4Z4	Playing saxophone	Arts&Entertainment	Socializing, Relaxing, and Leisure	Arts and Entertainment	Playing musical instruments	109	2	True	False	False	True	0.0050743999890983
video_on	action	21	eeg	1	9IbxItNJ7y0	Plataform diving	Participating_in_sports&Exercise&Recreation	Sports, Exercise, and Recreation	Participating in Sports, Exercise, or Recreation	Participating in water sports	233	1	True	True	True	True	0.0050722000014502
video_on	action	21	eeg	1	y9ysQJ51Mpo	Painting	Interior_maintenance&Repair&Decoration	Household Activities	Interior Maintenance, Repair, & Decoration	Interior arrangement, decoration, & repairs	217	7	True	False	False	True	0.0050710000214166
video_on	action	21	eeg	1	mwN9hGqaViQ	Making an omelette	Food&Drink_prep.&Presentation&Clean-up	Eating and drinking Activities	Food & Drink Prep., Presentation, & Clean-up	Food and drink preparation	334	5	True	False	False	True	0.0050747999921441
video_on	action	21	eeg	1	3ztMapQDeDU	Cleaning sink	Interior_maintenance&Repair&Decoration	Household Activities	Interior Maintenance, Repair, & Decoration	Interior arrangement, decoration, & repairs	297	7	True	False	False	True	0.0050676999962888
video_on	action	21	eeg	1	5bqqF7Z3eLo	Kite flying	Relaxing&Leisure	Socializing, Relaxing, and Leisure	Relaxing and Leisure	Playing games	327	3	True	False	True	False	0.0050810000102501
video_on	action	21	eeg	1	RS9fN9bHm5o	Mowing the lawn	Lawn&Garden&Houseplants	Household Activities	Lawn, Garden, and Houseplants	Lawn, garden, and houseplant care	218	9	True	False	False	True	0.0050691000069491
video_on	action	21	eeg	1	Cs0NMZogw0Y	Hurling	Participating_in_sports&Exercise&Recreation	Sports, Exercise, and Recreation	Participating in Sports, Exercise, or Recreation	Playing sports	323	1	True	True	True	True	0.0050711000221781
video_on	action	21	eeg	1	Vtb_9JoSTzE	Playing rubik cube	Relaxing&Leisure	Socializing, Relaxing, and Leisure	Relaxing and Leisure	Playing games	349	3	True	False	False	True	0.0050683000008575
video_on	action	21	eeg	1	DA5twePq818	Swinging at the playground	Arts&Entertainment	Socializing, Relaxing, and Leisure	Arts and Entertainment	Park activities	378	2	True	False	False	True	0.0050703000160865
video_on	action	21	eeg	1	qgVUao69oL4	Playing lacrosse	Participating_in_sports&Exercise&Recreation	Sports, Exercise, and Recreation	Participating in Sports, Exercise, or Recreation	Playing racquet sports	209	1	True	True	True	True	0.587737299996661
video_on	action	21	eeg	1	40kYOSyJqcg	Volleyball	Participating_in_sports&Exercise&Recreation	Sports, Exercise, and Recreation	Participating in Sports, Exercise, or Recreation	Playing volleyball	123	1	True	True	True	True	0.0050807999796234
video_on	action	21	eeg	1	aCx1xSmbogM	Calf roping	Participating_in_sports&Exercise&Recreation	Sports, Exercise, and Recreation	Participating in Sports, Exercise, or Recreation	Participating in rodeo competitions	290	1	True	True	False	False	0.0050717999984044
video_on	action	21	eeg	1	hKgvYdIGRxk	Tango	Arts&Entertainment	Socializing, Relaxing, and Leisure	Arts and Entertainment	Dancing	73	2	True	False	False	True	0.0050772000104188
video_on	action	21	eeg	1	IfJij0ZsmCk	Arm wrestling	Participating_in_sports&Exercise&Recreation	Sports, Exercise, and Recreation	Participating in Sports, Exercise, or Recreation	Wrestling	271	1	True	True	True	True	0.0050755999982357
video_on	action	21	eeg	1	8hNAe6KRx04	Doing crunches	Participating_in_sports&Exercise&Recreation	Sports, Exercise, and Recreation	Participating in Sports, Exercise, or Recreation	Working out	305	1	True	True	True	True	0.0050737999845296
video_on	action	21	eeg	1	0y6tcGoM9iI	Powerbocking	Participating_in_sports&Exercise&Recreation	Sports, Exercise, and Recreation	Participating in Sports, Exercise, or Recreation	Playing sports	350	1	True	True	False	False	0.0050728000060189
video_on	action	21	eeg	1	vd8uZw70Xo0	Playing water polo	Participating_in_sports&Exercise&Recreation	Sports, Exercise, and Recreation	Participating in Sports, Exercise, or Recreation	Participating in water sports	130	1	True	True	True	True	0.0050785999919753
video_on	action	21	eeg	1	xaM8gBZTv34	Disc dog	Animals&Pets	Household Activities	Animals and Pets	Walking / exercising / playing with animals	303	8	True	False	False	True	0.0050683000008575
video_on	action	21	eeg	1	_-frPh7w-xc	Painting furniture	Interior_maintenance&Repair&Decoration	Household Activities	Interior Maintenance, Repair, & Decoration	Building and repairing furniture	337	7	True	False	False	True	0.0050695999816525
video_on	action	21	eeg	1	T1CNUstA70E	Windsurfing	Participating_in_sports&Exercise&Recreation	Sports, Exercise, and Recreation	Participating in Sports, Exercise, or Recreation	Participating in water sports	237	1	True	True	True	True	0.0050706999900285
video_on	action	21	eeg	1	lFtWDgpYhrQ	Shuffleboard	Relaxing&Leisure	Socializing, Relaxing, and Leisure	Relaxing and Leisure	Playing games	368	3	True	False	True	False	0.3269970999972429
video_on	action	21	eeg	1	ootPndJlF10	Starting a campfire	Participating_in_sports&Exercise&Recreation	Sports, Exercise, and Recreation	Participating in Sports, Exercise, or Recreation	Playing sports	153	1	True	True	False	False	0.0050692000077106
video_on	action	21	eeg	1	3kP3WKMAk2w	Longboarding	Participating_in_sports&Exercise&Recreation	Sports, Exercise, and Recreation	Participating in Sports, Exercise, or Recreation	Playing sports	331	1	True	True	True	True	0.0050717999984044
video_on	action	21	eeg	1	zxa9_YVkk-Y	Canoeing	Participating_in_sports&Exercise&Recreation	Sports, Exercise, and Recreation	Participating in Sports, Exercise, or Recreation	Boating	292	1	True	True	True	True	0.2232185000029858
video_on	action	21	eeg	1	jjeSpS9rlrs	Rollerblading	Participating_in_sports&Exercise&Recreation	Sports, Exercise, and Recreation	Participating in Sports, Exercise, or Recreation	Playing sports	359	1	True	True	True	True	0.0050769000081345
video_on	action	21	eeg	1	R9j68U5-EVQ	Cleaning windows	Housework	Household Activities	Housework	Interior cleaning	143	6	True	False	False	True	0.0050746999913826
video_on	action	21	eeg	1	_D_dbnNKC3w	Vacuuming floor	Housework	Household Activities	Housework	Interior cleaning	160	6	True	False	False	True	0.0050744000182021
video_on	action	21	eeg	1	HNeu0QBm3n4	Scuba diving	Participating_in_sports&Exercise&Recreation	Sports, Exercise, and Recreation	Participating in Sports, Exercise, or Recreation	Participating in water sports	364	1	True	True	True	True	0.0050786999927368
video_on	action	21	eeg	1	floQdv_c1vo	Bullfighting	Participating_in_sports&Exercise&Recreation	Sports, Exercise, and Recreation	Participating in Sports, Exercise, or Recreation	Participating in rodeo competitions	288	1	True	True	True	True	0.0050802000041585
video_on	action	21	eeg	1	NS2lsf3AtQk	Smoking hookah	Relaxing&Leisure	Socializing, Relaxing, and Leisure	Relaxing and Leisure	Tobacco and drug use	189	3	True	False	False	True	0.0050699000130407
video_on	action	21	eeg	1	qUEyjDNNYcc	Playing pool	Relaxing&Leisure	Socializing, Relaxing, and Leisure	Relaxing and Leisure	Playing games	348	3	True	False	True	False	0.0050847000093199
video_on	action	21	eeg	1	eG0V4M1Dv3c	Playing drums	Arts&Entertainment	Socializing, Relaxing, and Leisure	Arts and Entertainment	Playing musical instruments	346	2	True	False	False	True	0.0050717999984044
video_on	action	21	eeg	1	jVgp68ShWSk	Baking cookies	Food&Drink_prep.&Presentation&Clean-up	Eating and drinking Activities	Food & Drink Prep., Presentation, & Clean-up	Food and drink preparation	276	5	True	False	False	True	0.0050746999913826
video_on	action	21	eeg	1	51ej4sHRXcQ	Polishing forniture	Housework	Household Activities	Housework	Interior cleaning	156	6	True	False	False	True	0.005074999993667
video_on	action	21	eeg	1	BFA07F4L4S0	Kneeling	Participating_in_sports&Exercise&Recreation	Sports, Exercise, and Recreation	Participating in Sports, Exercise, or Recreation	Working out	328	1	True	True	True	True	0.0050674000231083
video_on	action	21	eeg	1	S3ltip1CjwA	Doing motocross	Participating_in_sports&Exercise&Recreation	Sports, Exercise, and Recreation	Participating in Sports, Exercise, or Recreation	Playing sports	243	1	True	True	True	True	0.0051996000111103
video_on	action	21	eeg	1	pJ7HuV040cw	Shot put	Participating_in_sports&Exercise&Recreation	Sports, Exercise, and Recreation	Participating in Sports, Exercise, or Recreation	Playing sports	169	1	True	True	True	True	0.0051280999905429
video_on	action	21	eeg	1	Oc3fnnSjI9U	Belly dance	Arts&Entertainment	Socializing, Relaxing, and Leisure	Arts and Entertainment	Dancing	247	2	True	False	True	False	0.0050745999906212
video_on	action	21	eeg	1	Fy6xL3ClLnY	Playing kickball	Participating_in_sports&Exercise&Recreation	Sports, Exercise, and Recreation	Participating in Sports, Exercise, or Recreation	Playing sports	257	1	True	True	True	True	0.0050789999950211
video_on	action	21	eeg	1	SLmcTdLOQzo	Elliptical trainer	Participating_in_sports&Exercise&Recreation	Sports, Exercise, and Recreation	Participating in Sports, Exercise, or Recreation	Using cardiovascular equipment	308	1	True	True	True	True	0.0050701999862212
video_on	action	21	eeg	1	GqooYVsbbLg	Zumba	Participating_in_sports&Exercise&Recreation	Sports, Exercise, and Recreation	Participating in Sports, Exercise, or Recreation	Doing aerobics	69	1	True	True	True	True	0.0050664999871514
video_on	action	21	eeg	1	npByGdjTOIo	Doing karate	Participating_in_sports&Exercise&Recreation	Sports, Exercise, and Recreation	Participating in Sports, Exercise, or Recreation	Participating in martial arts	99	1	True	True	True	True	0.0050918000051751
video_on	action	21	eeg	1	9nQ9Zu1i4hU	Drum corps	Arts&Entertainment	Socializing, Relaxing, and Leisure	Arts and Entertainment	Playing musical instruments	307	2	True	False	True	False	0.0051060999976471
video_on	action	21	eeg	1	ngJSTp5W2Fs	Throwing darts	Relaxing&Leisure	Socializing, Relaxing, and Leisure	Relaxing and Leisure	Playing games	380	3	True	False	True	False	0.0050691000069491
video_on	action	21	eeg	1	vz65uoW1j2k	Using the rowing machine	Participating_in_sports&Exercise&Recreation	Sports, Exercise, and Recreation	Participating in Sports, Exercise, or Recreation	Using cardiovascular equipment	384	1	True	True	True	True	0.0050755999982357
video_on	action	21	eeg	1	CC7-t9tS2hs	Skiing	Participating_in_sports&Exercise&Recreation	Sports, Exercise, and Recreation	Participating in Sports, Exercise, or Recreation	Skiing, ice skating, snowboarding	369	1	True	True	True	True	0.0050692000077106
video_on	action	21	eeg	1	LBtYxSXFo_Q	Knitting	Housework	Household Activities	Housework	Sewing, repairing, & maintaining textiles	329	6	True	False	True	False	0.005069699982414
video_on	action	21	eeg	1	1eL_aDiC1cw	Playing flauta	Arts&Entertainment	Socializing, Relaxing, and Leisure	Arts and Entertainment	Playing musical instruments	149	2	True	False	True	False	0.0050709000206552
video_on	action	21	eeg	1	8jsP7SQlLbY	Blow-drying hair	Grooming	Personal Care	Grooming	Washing, dressing and grooming oneself	281	4	True	False	False	True	0.0050736000121105
video_on	action	21	eeg	1	b5oo38y6rG8	Making a cake	Food&Drink_prep.&Presentation&Clean-up	Eating and drinking Activities	Food & Drink Prep., Presentation, & Clean-up	Food and drink preparation	332	5	True	False	False	True	0.0051076999807264
video_on	action	21	eeg	1	v_R448O14UE	Clean and jerk	Participating_in_sports&Exercise&Recreation	Sports, Exercise, and Recreation	Participating in Sports, Exercise, or Recreation	Weightlifting	84	1	True	True	True	True	0.0050699000130407
video_on	action	21	eeg	1	dPN9cVM3qhU	Snowboarding	Participating_in_sports&Exercise&Recreation	Sports, Exercise, and Recreation	Participating in Sports, Exercise, or Recreation	Skiing, ice skating, snowboarding	373	1	True	True	True	True	0.0050699999846983
video_on	action	21	eeg	1	JsLUAPe2ILU	Decorating the Christmas tree	Interior_maintenance&Repair&Decoration	Household Activities	Interior Maintenance, Repair, & Decoration	Interior arrangement, decoration, & repairs	302	7	True	False	False	True	0.0050871999992523
video_on	action	21	eeg	1	2nYXexzRwpA	Getting a haircut	Grooming	Personal Care	Grooming	Washing, dressing and grooming	208	4	True	False	False	True	0.0051109000050928
video_on	action	21	eeg	1	A4tBWMfgQcM	Bathing dog	Animals&Pets	Household Activities	Animals and Pets	Care for animals and pets (not veterinary care)	90	8	True	False	False	True	0.0050718999991659
video_on	action	21	meg	2	XsBuvIYJ_Nw	Plastering	Interior_maintenance&Repair&Decoration	Household Activities	Interior Maintenance, Repair, & Decoration	Interior arrangement, decoration, & repairs	340	7	True	False	False	True	0.3833494079590309
video_on	action	21	meg	2	fMh7YDxHkcU	Playing accordion	Arts&Entertainment	Socializing, Relaxing, and Leisure	Arts and Entertainment	Playing musical instruments	267	2	True	False	False	True	0.4237777626840397
video_on	action	21	meg	2	482WO74lG5s	Playing saxophone	Arts&Entertainment	Socializing, Relaxing, and Leisure	Arts and Entertainment	Playing musical instruments	109	2	True	False	False	True	0.3520342321571661
video_on	action	21	meg	2	hN09JcB2xOs	Canoeing	Participating_in_sports&Exercise&Recreation	Sports, Exercise, and Recreation	Participating in Sports, Exercise, or Recreation	Boating	292	1	True	True	True	True	0.4968407706764992
video_on	action	21	meg	2	lO4ng8bV3b4	Waxing skis	Appliances&Tools&Toys	Household Activities	Appliances, Tools, and Toys	Appliance, tool, and toy set-up, repair, & maintenance (by self)	387	10	True	False	False	True	0.3515132030734094
video_on	action	21	meg	2	yNkG0glzbJE	Cricket	Participating_in_sports&Exercise&Recreation	Sports, Exercise, and Recreation	Participating in Sports, Exercise, or Recreation	Playing sports	82	1	True	True	True	True	0.274633038250613
video_on	action	21	meg	2	syqHU6x7Jac	Cleaning windows	Housework	Household Activities	Housework	Interior cleaning	143	6	True	False	False	True	0.48066049341287
video_on	action	21	meg	2	I1ufUQ9Wo2A	Windsurfing	Participating_in_sports&Exercise&Recreation	Sports, Exercise, and Recreation	Participating in Sports, Exercise, or Recreation	Participating in water sports	237	1	True	True	True	True	0.3468296769133303
video_on	action	21	meg	2	l_R7yVDvFls	Ironing clothes	Housework	Household Activities	Housework	Laundry	83	6	True	False	False	True	0.3440983495092951
video_on	action	21	meg	2	vIxoaqV00rc	Discus throw	Participating_in_sports&Exercise&Recreation	Sports, Exercise, and Recreation	Participating in Sports, Exercise, or Recreation	Playing sports	92	1	True	True	True	True	0.3209671941876877
video_on	action	21	meg	2	GR5lvZiDAn4	Ice fishing	Participating_in_sports&Exercise&Recreation	Sports, Exercise, and Recreation	Participating in Sports, Exercise, or Recreation	Fishing	324	1	True	True	True	True	0.7066159523674287
video_on	action	21	meg	2	ZRqhMUZaOuY	Zumba	Participating_in_sports&Exercise&Recreation	Sports, Exercise, and Recreation	Participating in Sports, Exercise, or Recreation	Doing aerobics	69	1	True	True	True	True	0.272110001737019
video_on	action	21	meg	2	hJaYrePP5uA	Horseback riding	Participating_in_sports&Exercise&Recreation	Sports, Exercise, and Recreation	Participating in Sports, Exercise, or Recreation	Participating in equestrian sports	175	1	True	True	True	True	0.3463231376372278
video_on	action	21	meg	2	gG2xIZEpOq8	Calf roping	Participating_in_sports&Exercise&Recreation	Sports, Exercise, and Recreation	Participating in Sports, Exercise, or Recreation	Participating in rodeo competitions	290	1	True	True	True	True	0.3530578762001823
video_on	action	21	meg	2	S26m6myDltg	Shot put	Participating_in_sports&Exercise&Recreation	Sports, Exercise, and Recreation	Participating in Sports, Exercise, or Recreation	Playing sports	169	1	True	True	True	True	0.5078315862629097
video_on	action	21	meg	2	kOyzsifrUj0	Snatch	Participating_in_sports&Exercise&Recreation	Sports, Exercise, and Recreation	Participating in Sports, Exercise, or Recreation	Weightlifting	79	1	True	True	True	True	0.5694316526642069
video_on	action	21	meg	2	NAjD9dlboBI	Having an ice cream	Food&Drink_prep.&Presentation&Clean-up	Eating and drinking Activities	Food & Drink Prep., Presentation, & Clean-up	Eating and Drinking	320	5	True	False	False	True	0.4415159953787224
video_on	action	21	meg	2	xPCm5OEssfU	Smoking a cigarette	Relaxing&Leisure	Socializing, Relaxing, and Leisure	Relaxing and Leisure	Tobacco and drug use	201	3	True	False	False	True	0.4022471265634522
video_on	action	21	meg	2	qhMV6PjZmEk	Preparing salad	Food&Drink_prep.&Presentation&Clean-up	Eating and drinking Activities	Food & Drink Prep., Presentation, & Clean-up	Food and drink preparation	96	5	True	False	False	True	0.3938732293318026
video_on	action	21	meg	2	Guwl5G6Wr4Y	Playing flauta	Arts&Entertainment	Socializing, Relaxing, and Leisure	Arts and Entertainment	Playing musical instruments	149	2	True	False	False	True	0.4258498041599523
video_on	action	21	meg	2	56P-RMk30i0	Hammer throw	Participating_in_sports&Exercise&Recreation	Sports, Exercise, and Recreation	Participating in Sports, Exercise, or Recreation	Playing sports	224	1	True	True	True	True	0.3141566860576859
video_on	action	21	meg	2	7AINLOPtxaM	Getting a tattoo	Grooming	Personal Care	Grooming	Washing, dressing and grooming	187	4	True	False	False	True	0.4103013425774406
video_on	action	21	meg	2	ySKIfVVTC-M	Washing hands	Grooming	Personal Care	Grooming	Washing, dressing and grooming oneself	173	4	True	False	False	True	0.4664263774757273
video_on	action	21	meg	2	LJruJ4JfMqA	Playing polo	Participating_in_sports&Exercise&Recreation	Sports, Exercise, and Recreation	Participating in Sports, Exercise, or Recreation	Participating in equestrian sports	75	1	True	True	True	True	0.3006754360249033
video_on	action	21	meg	2	JETxsiP-pXQ	Putting on shoes	Grooming	Personal Care	Grooming	Washing, dressing and grooming oneself	352	4	True	False	False	True	0.3312081625917926
video_on	action	21	meg	2	jweOK9YVJss	Rafting	Participating_in_sports&Exercise&Recreation	Sports, Exercise, and Recreation	Participating in Sports, Exercise, or Recreation	Boating	353	1	True	True	True	True	0.450957006047247
video_on	action	21	meg	2	gxHx70qieUY	Getting a haircut	Grooming	Personal Care	Grooming	Washing, dressing and grooming	208	4	True	False	False	True	0.2757409042533254
video_on	action	21	meg	2	lp-hTW-N0Hc	Assembling bicycle	Vehicles	Household Activities	Vehicles	Vehicle repair and maintenance (by self)	273	11	True	False	False	True	0.3152062909939559
video_on	action	21	meg	2	3ALTSG548As	Waterskiing	Participating_in_sports&Exercise&Recreation	Sports, Exercise, and Recreation	Participating in Sports, Exercise, or Recreation	Participating in water sports	386	1	True	True	True	True	0.3014316224871436
video_on	action	21	meg	2	A8sY6skAbV0	Archery	Participating_in_sports&Exercise&Recreation	Sports, Exercise, and Recreation	Participating in Sports, Exercise, or Recreation	Playing sports	250	1	True	True	True	True	0.3081926237937296
video_on	action	21	meg	2	gUGKOZHYKjc	Throwing darts	Relaxing&Leisure	Socializing, Relaxing, and Leisure	Relaxing and Leisure	Playing games	380	3	True	False	True	False	0.6443086025683442
video_on	action	21	meg	2	Rfzs5UZJpds	Snowboarding	Participating_in_sports&Exercise&Recreation	Sports, Exercise, and Recreation	Participating in Sports, Exercise, or Recreation	Skiing, ice skating, snowboarding	373	1	True	True	True	True	0.284021523388219
video_on	action	21	meg	2	CQA2E71iWUE	BMX	Participating_in_sports&Exercise&Recreation	Sports, Exercise, and Recreation	Participating in Sports, Exercise, or Recreation	Biking	274	1	True	True	True	True	0.3187904035294195
video_on	action	21	meg	2	W4fhKmgtmIs	Painting furniture	Interior_maintenance&Repair&Decoration	Household Activities	Interior Maintenance, Repair, & Decoration	Building and repairing furniture	337	7	True	False	False	True	0.300260967342183
video_on	action	21	meg	2	_Y2QxouYvxc	Playing ice hockey	Participating_in_sports&Exercise&Recreation	Sports, Exercise, and Recreation	Participating in Sports, Exercise, or Recreation	Playing hockey	347	1	True	True	True	True	0.3069561607990181
video_on	action	21	meg	2	Bq01P9QqZdM	Elliptical trainer	Participating_in_sports&Exercise&Recreation	Sports, Exercise, and Recreation	Participating in Sports, Exercise, or Recreation	Using cardiovascular equipment	308	1	True	True	True	True	0.3325596383656375
video_on	action	21	meg	2	U0iNhqZDPpg	Swimming	Participating_in_sports&Exercise&Recreation	Sports, Exercise, and Recreation	Participating in Sports, Exercise, or Recreation	Participating in water sports	377	1	True	True	True	True	0.279458745586453
video_on	action	21	meg	2	Wuiodo0OvR4	Volleyball	Participating_in_sports&Exercise&Recreation	Sports, Exercise, and Recreation	Participating in Sports, Exercise, or Recreation	Playing volleyball	123	1	True	True	True	True	0.372913430997869
video_on	action	21	meg	2	suEPUSm5k14	Shaving	Grooming	Personal Care	Grooming	Washing, dressing and grooming oneself	190	4	True	False	False	True	0.4076394454605179
video_on	action	21	meg	2	XJVJ3L-97FA	Making an omelette	Food&Drink_prep.&Presentation&Clean-up	Eating and drinking Activities	Food & Drink Prep., Presentation, & Clean-up	Food and drink preparation	334	5	True	False	False	True	0.7170640041731531
video_on	action	21	meg	2	tNfugq4aUmE	Shuffleboard	Relaxing&Leisure	Socializing, Relaxing, and Leisure	Relaxing and Leisure	Playing games	368	3	True	False	False	True	0.5019629151647678
video_on	action	21	meg	2	tmBTO0cA_qw	Sharpening knives	Appliances&Tools&Toys	Household Activities	Appliances, Tools, and Toys	Appliance, tool, and toy set-up, repair, & maintenance (by self)	365	10	True	False	False	True	0.3254635604243958
video_on	action	21	meg	2	K-dsQCq1Ric	Polishing forniture	Housework	Household Activities	Housework	Interior cleaning	156	6	True	False	False	True	0.3822158829425461
video_on	action	21	meg	2	zRxDlkaLIa4	Using uneven bars	Participating_in_sports&Exercise&Recreation	Sports, Exercise, and Recreation	Participating in Sports, Exercise, or Recreation	Doing gymnastics	192	1	True	True	True	True	0.527848038225784
video_on	action	21	meg	2	UuXDZ0t7dVA	Long jump	Participating_in_sports&Exercise&Recreation	Sports, Exercise, and Recreation	Participating in Sports, Exercise, or Recreation	Playing sports	80	1	True	True	True	True	0.3440234855515882
video_on	action	21	meg	2	VWZCwGaTRxM	Doing nails	Grooming	Personal Care	Grooming	Washing, dressing and grooming oneself	167	4	True	False	False	True	0.5101656516199
video_on	action	21	meg	2	9hrra9AKadg	Playing water polo	Participating_in_sports&Exercise&Recreation	Sports, Exercise, and Recreation	Participating in Sports, Exercise, or Recreation	Participating in water sports	130	1	True	True	True	True	0.3422871244547423
video_on	action	21	meg	2	3FDzilXz-AI	Slacklining	Relaxing&Leisure	Socializing, Relaxing, and Leisure	Relaxing and Leisure	Playing games	371	3	True	False	False	True	0.3008994241827167
video_on	action	21	meg	2	eHFSD5YOXKU	Washing dishes	Food&Drink_prep.&Presentation&Clean-up	Eating and drinking Activities	Food & Drink Prep., Presentation, & Clean-up	Kitchen and food clean-up	213	5	True	False	False	True	0.4404144686704967
video_on	action	21	meg	2	6RgMcig_o4A	Trimming branches or hedges	Lawn&Garden&Houseplants	Household Activities	Lawn, Garden, and Houseplants	Lawn, garden, and houseplant care	381	9	True	False	False	True	0.4081215331971179
video_on	action	21	meg	2	u-3Nk2SzskY	Bullfighting	Participating_in_sports&Exercise&Recreation	Sports, Exercise, and Recreation	Participating in Sports, Exercise, or Recreation	Participating in rodeo competitions	288	1	True	True	True	True	0.3135740753350546
video_on	action	21	meg	2	DXxTfMXQn0Q	Playing piano	Arts&Entertainment	Socializing, Relaxing, and Leisure	Arts and Entertainment	Playing musical instruments	197	2	True	False	False	True	0.3191387624829076
video_on	action	21	meg	2	bNElaisUTcA	Drum corps	Arts&Entertainment	Socializing, Relaxing, and Leisure	Arts and Entertainment	Playing musical instruments	307	2	True	False	False	True	0.4071827148873126
video_on	action	21	meg	2	u98Pebhamno	Springboard diving	Participating_in_sports&Exercise&Recreation	Sports, Exercise, and Recreation	Participating in Sports, Exercise, or Recreation	Participating in water sports	193	1	True	True	True	True	0.4312762344634393
video_on	action	21	meg	2	u-0qHXSK-6k	Beer pong	Relaxing&Leisure	Socializing, Relaxing, and Leisure	Relaxing and Leisure	Playing games	280	3	True	False	False	True	0.3914138875697972
video_on	action	21	meg	2	zZ57MYznOZI	Braiding hair	Grooming	Personal Care	Grooming	Washing, dressing and grooming oneself	285	4	True	False	False	True	0.3277312142017763
video_on	action	21	meg	2	vFmq_mWmzwk	Hurling	Participating_in_sports&Exercise&Recreation	Sports, Exercise, and Recreation	Participating in Sports, Exercise, or Recreation	Playing sports	323	1	True	True	True	True	0.513836099227774
video_on	action	21	meg	2	lp4_79ooAQo	Playing violin	Arts&Entertainment	Socializing, Relaxing, and Leisure	Arts and Entertainment	Playing musical instruments	234	2	True	False	False	True	0.3440255986497504
video_on	action	21	meg	2	DklzujRHbRU	Doing karate	Participating_in_sports&Exercise&Recreation	Sports, Exercise, and Recreation	Participating in Sports, Exercise, or Recreation	Participating in martial arts	99	1	True	True	False	False	0.4880759506922913
video_on	action	21	meg	2	1fd6XkePrEU	Grooming dog	Animals&Pets	Household Activities	Animals and Pets	Care for animals and pets (not veterinary care)	317	8	True	False	False	True	0.3442314745625481
video_on	action	21	meg	2	e1AxlrE5j8U	Arm wrestling	Participating_in_sports&Exercise&Recreation	Sports, Exercise, and Recreation	Participating in Sports, Exercise, or Recreation	Wrestling	271	1	True	True	False	False	0.4404697110294364
video_on	action	21	meg	2	9sghU58TvBI	Putting in contact lenses	Grooming	Personal Care	Grooming	Washing, dressing and grooming oneself	351	4	True	False	False	True	0.3846954500477295
video_on	action	21	meg	2	jbntVpbECCE	Knitting	Housework	Household Activities	Housework	Sewing, repairing, & maintaining textiles	329	6	True	False	False	True	0.3127511754137231
video_on	action	21	meg	2	i8poMwDHMiQ	Rock climbing	Participating_in_sports&Exercise&Recreation	Sports, Exercise, and Recreation	Participating in Sports, Exercise, or Recreation	Climbing, spelunking, caving	188	1	True	True	False	False	0.5807273578102468
video_on	action	21	meg	2	gl1sY6sHu5g	Polishing shoes	Housework	Household Activities	Housework	Sewing, repairing, & maintaining textiles	227	6	True	False	False	True	0.3290093353425618
video_on	action	21	meg	2	35FV6YER-TM	Surfing	Participating_in_sports&Exercise&Recreation	Sports, Exercise, and Recreation	Participating in Sports, Exercise, or Recreation	Participating in water sports	376	1	True	True	True	True	0.3613191756012384
video_on	action	21	meg	2	Y0SuLykVCmk	Dodgeball	Participating_in_sports&Exercise&Recreation	Sports, Exercise, and Recreation	Participating in Sports, Exercise, or Recreation	Playing sports	161	1	True	True	True	True	0.3854806161107262
video_on	action	21	meg	2	HynVxcMFJZU	Croquet	Participating_in_sports&Exercise&Recreation	Sports, Exercise, and Recreation	Participating in Sports, Exercise, or Recreation	Playing sports	299	1	True	True	True	True	0.3615407487959601
video_on	action	21	meg	2	M5mlGEZ4rkk	Kite flying	Relaxing&Leisure	Socializing, Relaxing, and Leisure	Relaxing and Leisure	Playing games	327	3	True	False	False	True	0.449626359360991
video_on	action	21	meg	2	oiOWPclGkbI	Making a cake	Food&Drink_prep.&Presentation&Clean-up	Eating and drinking Activities	Food & Drink Prep., Presentation, & Clean-up	Food and drink preparation	332	5	True	False	False	True	0.5217203619540669
video_on	action	21	meg	2	9hPi5vldBQk	Tumbling	Participating_in_sports&Exercise&Recreation	Sports, Exercise, and Recreation	Participating in Sports, Exercise, or Recreation	Doing gymnastics	258	1	True	True	True	True	0.2821013229549862
video_on	action	21	meg	2	6RFUWfoQqTM	Hanging wallpaper	Interior_maintenance&Repair&Decoration	Household Activities	Interior Maintenance, Repair, & Decoration	Interior arrangement, decoration, & repairs	319	7	True	False	False	True	0.3860882821318228
video_on	action	21	meg	2	exQCLN4wTWA	Skiing	Participating_in_sports&Exercise&Recreation	Sports, Exercise, and Recreation	Participating in Sports, Exercise, or Recreation	Skiing, ice skating, snowboarding	369	1	True	True	True	True	0.3783954055252252
video_on	action	21	meg	2	1Bwpl53mnLQ	Vacuuming floor	Housework	Household Activities	Housework	Interior cleaning	160	6	True	False	False	True	0.4364641868014587
video_on	action	21	meg	2	4gOOIjvqOzk	Swinging at the playground	Arts&Entertainment	Socializing, Relaxing, and Leisure	Arts and Entertainment	Park activities	378	2	True	False	False	True	0.4105748375586699
video_on	action	21	meg	2	Mj5V_mUSGdo	Starting a campfire	Participating_in_sports&Exercise&Recreation	Sports, Exercise, and Recreation	Participating in Sports, Exercise, or Recreation	Playing sports	153	1	True	True	False	False	0.3615754639467923
video_on	action	21	meg	2	jywZRVuJnYY	Fixing bicycle	Vehicles	Household Activities	Vehicles	Vehicle repair and maintenance (by self)	171	11	True	False	False	True	0.4029918419400928
video_on	action	21	meg	2	7WCacxzFdMk	Baton twirling	Participating_in_sports&Exercise&Recreation	Sports, Exercise, and Recreation	Participating in Sports, Exercise, or Recreation	Playing sports	277	1	True	True	False	False	0.5378619997500209
video_on	action	21	meg	2	ZAoRatYhrAc	Futsal	Participating_in_sports&Exercise&Recreation	Sports, Exercise, and Recreation	Participating in Sports, Exercise, or Recreation	Playing soccer	315	1	True	True	True	True	0.347245654949802
video_on	action	21	meg	2	tTBwqNkjPLY	Powerbocking	Participating_in_sports&Exercise&Recreation	Sports, Exercise, and Recreation	Participating in Sports, Exercise, or Recreation	Playing sports	350	1	True	True	True	True	0.4200572045228909
video_on	action	21	meg	2	-9tgBe6MGTA	Playing field hockey	Participating_in_sports&Exercise&Recreation	Sports, Exercise, and Recreation	Participating in Sports, Exercise, or Recreation	Playing hockey	94	1	True	True	True	True	0.5578238130838145
video_on	action	21	meg	2	qIb8IB1UUzk	Mixing drinks	Food&Drink_prep.&Presentation&Clean-up	Eating and drinking Activities	Food & Drink Prep., Presentation, & Clean-up	Food and drink preparation	244	5	True	False	False	True	0.4045570422604214
video_on	action	21	meg	2	Bzirh12PNpg	Putting on makeup	Grooming	Personal Care	Grooming	Washing, dressing and grooming oneself	76	4	True	False	False	True	0.3319359731976874
video_on	action	21	meg	2	SFkZGDOMyKM	Decorating the Christmas tree	Interior_maintenance&Repair&Decoration	Household Activities	Interior Maintenance, Repair, & Decoration	Interior arrangement, decoration, & repairs	302	7	True	False	False	True	0.3959048201213591
video_on	action	21	meg	2	5Wjs4OgYlxU	Making a lemonade	Food&Drink_prep.&Presentation&Clean-up	Eating and drinking Activities	Food & Drink Prep., Presentation, & Clean-up	Food and drink preparation	333	5	True	False	False	True	0.4026860467711231
video_on	action	21	meg	2	0iwERk9sqWw	Rope skipping	Participating_in_sports&Exercise&Recreation	Sports, Exercise, and Recreation	Participating in Sports, Exercise, or Recreation	Working out	361	1	True	True	True	True	0.3877428362175124
video_on	action	21	meg	2	R-LnPzm3Ph4	Riding bumper cars	Relaxing&Leisure	Socializing, Relaxing, and Leisure	Relaxing and Leisure	Playing games	356	3	True	False	False	True	0.8045537216967205
video_on	action	21	meg	2	E7OCzz_XuiI	Rock-paper-scissors	Relaxing&Leisure	Socializing, Relaxing, and Leisure	Relaxing and Leisure	Playing games	358	3	True	False	False	True	0.4192258522089105
video_on	action	21	meg	2	UgWU9QC_5Oo	Tai chi	Participating_in_sports&Exercise&Recreation	Sports, Exercise, and Recreation	Participating in Sports, Exercise, or Recreation	Participating in martial arts	263	1	True	True	True	True	0.7328298127686139
video_on	action	21	meg	2	naywtXGH_d0	Beach soccer	Participating_in_sports&Exercise&Recreation	Sports, Exercise, and Recreation	Participating in Sports, Exercise, or Recreation	Playing soccer	278	1	False	True	False	False	0.0
video_on	action	21	eeg	2	YAiHSlrIw1E	Camel ride	Participating_in_sports&Exercise&Recreation	Sports, Exercise, and Recreation	Participating in Sports, Exercise, or Recreation	Playing sports	291	1	True	True	True	True	0.0050674999947659
video_on	action	21	eeg	2	Pmz6t7Teq9s	Sailing	Participating_in_sports&Exercise&Recreation	Sports, Exercise, and Recreation	Participating in Sports, Exercise, or Recreation	Participating in water sports	240	1	True	True	True	True	0.0050705000176094
video_on	action	21	eeg	2	0TqLz4xJDjU	Cheerleading	Arts&Entertainment	Socializing, Relaxing, and Leisure	Arts and Entertainment	Dancing	140	2	True	False	True	False	0.0050892000144813
video_on	action	21	eeg	2	I89dPBuIPZA	Rock climbing	Participating_in_sports&Exercise&Recreation	Sports, Exercise, and Recreation	Participating in Sports, Exercise, or Recreation	Climbing, spelunking, caving	188	1	True	True	True	True	0.0050722000014502
video_on	action	21	eeg	2	07b8K5YGAnE	Using the balance beam	Participating_in_sports&Exercise&Recreation	Sports, Exercise, and Recreation	Participating in Sports, Exercise, or Recreation	Doing gymnastics	180	1	True	True	True	True	0.0050788999942597
video_on	action	21	eeg	2	yVmT_0ZJjVo	Sumo	Participating_in_sports&Exercise&Recreation	Sports, Exercise, and Recreation	Participating in Sports, Exercise, or Recreation	Wrestling	375	1	True	True	True	True	0.0050712999945972
video_on	action	21	eeg	2	km-JE5UDYGw	Playing harmonica	Arts&Entertainment	Socializing, Relaxing, and Leisure	Arts and Entertainment	Playing musical instruments	100	2	True	False	False	True	0.0050726999761536
video_on	action	21	eeg	2	3gqkTFb_wUE	Pole vault	Participating_in_sports&Exercise&Recreation	Sports, Exercise, and Recreation	Participating in Sports, Exercise, or Recreation	Playing sports	106	1	True	True	True	True	0.0050704000168479
video_on	action	21	eeg	2	EgEuDaDiuRQ	Playing racquetball	Participating_in_sports&Exercise&Recreation	Sports, Exercise, and Recreation	Participating in Sports, Exercise, or Recreation	Playing racquet sports	253	1	True	True	True	True	0.0050717999984044
video_on	action	21	eeg	2	97jhdlRGOkg	Using the pommel horse	Participating_in_sports&Exercise&Recreation	Sports, Exercise, and Recreation	Participating in Sports, Exercise, or Recreation	Doing gymnastics	114	1	True	True	True	True	0.0050776999851223
video_on	action	21	eeg	2	av0XgdOj0dI	Raking leaves	Lawn&Garden&Houseplants	Household Activities	Lawn, Garden, and Houseplants	Lawn, garden, and houseplant care	354	9	True	False	False	True	0.00507590000052
video_on	action	21	eeg	2	IYXwrILkxug	Making a sandwich	Food&Drink_prep.&Presentation&Clean-up	Eating and drinking Activities	Food & Drink Prep., Presentation, & Clean-up	Food and drink preparation	129	5	True	False	False	True	0.0050689000054262
video_on	action	21	eeg	2	-y5TbQ69Opc	Shaving	Grooming	Personal Care	Grooming	Washing, dressing and grooming oneself	190	4	True	False	False	True	0.0050682000000961
video_on	action	21	eeg	2	gellkdZve5o	Tug of war	Relaxing&Leisure	Socializing, Relaxing, and Leisure	Relaxing and Leisure	Playing games	382	3	True	False	True	False	0.0050783000187948
video_on	action	21	eeg	2	VRxcjV6NlJM	Braiding hair	Grooming	Personal Care	Grooming	Washing, dressing and grooming oneself	285	4	True	False	False	True	0.0050739999860525
video_on	action	21	eeg	2	rtQeHCcwRDU	Playing violin	Arts&Entertainment	Socializing, Relaxing, and Leisure	Arts and Entertainment	Playing musical instruments	234	2	True	False	False	True	0.0050701999862212
video_on	action	21	eeg	2	-iucFkswD1s	Trimming branches or hedges	Lawn&Garden&Houseplants	Household Activities	Lawn, Garden, and Houseplants	Lawn, garden, and houseplant care	381	9	True	False	False	True	0.0050738000136334
video_on	action	21	eeg	2	sQlwKa8W0cg	Ironing clothes	Housework	Household Activities	Housework	Laundry	83	6	True	False	False	True	0.0050755999982357
video_on	action	21	eeg	2	x09nVNm-XEo	Croquet	Participating_in_sports&Exercise&Recreation	Sports, Exercise, and Recreation	Participating in Sports, Exercise, or Recreation	Playing sports	299	1	True	True	True	True	0.0050810000102501
video_on	action	21	eeg	2	Msa_ONTPCS4	Dodgeball	Participating_in_sports&Exercise&Recreation	Sports, Exercise, and Recreation	Participating in Sports, Exercise, or Recreation	Playing sports	161	1	True	True	True	True	0.0050729000067804
video_on	action	21	eeg	2	ZWgazFh3L20	Preparing salad	Food&Drink_prep.&Presentation&Clean-up	Eating and drinking Activities	Food & Drink Prep., Presentation, & Clean-up	Food and drink preparation	96	5	True	False	False	True	0.005071699997643
video_on	action	21	eeg	2	KRBU5JwmhgI	Washing hands	Grooming	Personal Care	Grooming	Washing, dressing and grooming oneself	173	4	True	False	False	True	0.0050682000000961
video_on	action	21	eeg	2	f9tRI4WEVcY	Carving jack-o-lanterns	Interior_maintenance&Repair&Decoration	Household Activities	Interior Maintenance, Repair, & Decoration	Interior arrangement, decoration, & repairs	295	7	True	False	False	True	0.00507590000052
video_on	action	21	eeg	2	kpMkxgRBQYk	Using parallel bars	Participating_in_sports&Exercise&Recreation	Sports, Exercise, and Recreation	Participating in Sports, Exercise, or Recreation	Doing gymnastics	88	1	True	True	True	True	0.0050812999834306
video_on	action	21	eeg	2	7wrw19K_g_M	Putting on shoes	Grooming	Personal Care	Grooming	Washing, dressing and grooming oneself	352	4	True	False	False	True	0.0050729000067804
video_on	action	21	eeg	2	sXfF9Ln6L6M	Playing badminton	Participating_in_sports&Exercise&Recreation	Sports, Exercise, and Recreation	Participating in Sports, Exercise, or Recreation	Playing racquet sports	268	1	True	True	True	True	0.0050791000248864
video_on	action	21	eeg	2	gmWDvjKixew	Plastering	Interior_maintenance&Repair&Decoration	Household Activities	Interior Maintenance, Repair, & Decoration	Interior arrangement, decoration, & repairs	340	7	True	False	False	True	0.0050704999885056
video_on	action	21	eeg	2	YXS1scwyC2g	Rafting	Participating_in_sports&Exercise&Recreation	Sports, Exercise, and Recreation	Participating in Sports, Exercise, or Recreation	Boating	353	1	True	True	True	True	0.0050986999995075
video_on	action	21	eeg	2	TF958m8a0Ys	Baton twirling	Participating_in_sports&Exercise&Recreation	Sports, Exercise, and Recreation	Participating in Sports, Exercise, or Recreation	Playing sports	277	1	True	True	False	False	0.0050711000221781
video_on	action	21	eeg	2	HtE1_Ja5PMQ	Tai chi	Participating_in_sports&Exercise&Recreation	Sports, Exercise, and Recreation	Participating in Sports, Exercise, or Recreation	Participating in martial arts	263	1	True	True	True	True	0.987794099986786
video_on	action	21	eeg	2	lgwYCX0bqG0	Fixing the roof	Exterior_maintenance&Repair&Decoration	Household Activities	Exterior Maintenance, Repair, & Decoration	Exterior repair, improvements, & decoration	311	12	True	False	False	True	0.9801839000137988
video_on	action	21	eeg	2	EipelgR6viI	Laying tile	Interior_maintenance&Repair&Decoration	Household Activities	Interior Maintenance, Repair, & Decoration	Interior arrangement, decoration, & repairs	330	7	True	False	False	True	0.5716779999784194
video_on	action	21	eeg	2	CYJlu2QPgdk	Preparing pasta	Food&Drink_prep.&Presentation&Clean-up	Eating and drinking Activities	Food & Drink Prep., Presentation, & Clean-up	Food and drink preparation	186	5	True	False	False	True	0.8783988000068348
video_on	action	21	eeg	2	dJeTxcsd9qA	Playing field hockey	Participating_in_sports&Exercise&Recreation	Sports, Exercise, and Recreation	Participating in Sports, Exercise, or Recreation	Playing hockey	94	1	True	True	True	True	0.6116893999860622
video_on	action	21	eeg	2	kQSzlGJwkDg	Surfing	Participating_in_sports&Exercise&Recreation	Sports, Exercise, and Recreation	Participating in Sports, Exercise, or Recreation	Participating in water sports	376	1	True	True	True	True	0.5622718999802601
video_on	action	21	eeg	2	XMOkRE6z93Q	Hopscotch	Relaxing&Leisure	Socializing, Relaxing, and Leisure	Relaxing and Leisure	Playing games	241	3	True	False	True	False	0.6149648999853525
video_on	action	21	eeg	2	W8bOTB53K8w	Long jump	Participating_in_sports&Exercise&Recreation	Sports, Exercise, and Recreation	Participating in Sports, Exercise, or Recreation	Playing sports	80	1	True	True	True	True	0.4408833000052254
video_on	action	21	eeg	2	mSfxn8Ibhco	Hitting a pinata	Relaxing&Leisure	Socializing, Relaxing, and Leisure	Relaxing and Leisure	Playing games	321	3	True	False	True	False	0.6322601999854669
video_on	action	21	eeg	2	OzkcKvNIuD0	Hula hoop	Relaxing&Leisure	Socializing, Relaxing, and Leisure	Relaxing and Leisure	Playing games	322	3	True	False	True	False	0.5920702000148594
video_on	action	21	eeg	2	t9T7gqCO-kY	Beer pong	Relaxing&Leisure	Socializing, Relaxing, and Leisure	Relaxing and Leisure	Playing games	280	3	True	False	True	False	0.5219539999961853
video_on	action	21	eeg	2	qYrzrqJSGq4	Doing nails	Grooming	Personal Care	Grooming	Washing, dressing and grooming oneself	167	4	True	False	False	True	0.6108479000104126
video_on	action	21	eeg	2	ERL9AOEMjsg	Skateboarding	Participating_in_sports&Exercise&Recreation	Sports, Exercise, and Recreation	Participating in Sports, Exercise, or Recreation	Playing sports	176	1	True	True	True	True	0.5706734000123106
video_on	action	21	eeg	2	f9scVMheOoo	Swimming	Participating_in_sports&Exercise&Recreation	Sports, Exercise, and Recreation	Participating in Sports, Exercise, or Recreation	Participating in water sports	377	1	True	True	True	True	0.6550897000124678
video_on	action	21	eeg	2	uWBD-1A4yzk	Paintball	Participating_in_sports&Exercise&Recreation	Sports, Exercise, and Recreation	Participating in Sports, Exercise, or Recreation	Playing sports	141	1	True	True	True	True	0.548668599978555
video_on	action	21	eeg	2	pLjW8s7bvtU	Making a lemonade	Food&Drink_prep.&Presentation&Clean-up	Eating and drinking Activities	Food & Drink Prep., Presentation, & Clean-up	Food and drink preparation	333	5	True	False	False	True	0.4415660000231582
video_on	action	21	eeg	2	So1FuGmzV4c	Playing beach volleyball	Participating_in_sports&Exercise&Recreation	Sports, Exercise, and Recreation	Participating in Sports, Exercise, or Recreation	Playing volleyball	341	1	True	True	True	True	0.5978303999872878
video_on	action	21	eeg	2	Dh0A439KC28	Futsal	Participating_in_sports&Exercise&Recreation	Sports, Exercise, and Recreation	Participating in Sports, Exercise, or Recreation	Playing soccer	315	1	True	True	True	True	0.4849197999865282
video_on	action	21	eeg	2	-dnS77u8Zdo	Playing guitarra	Arts&Entertainment	Socializing, Relaxing, and Leisure	Arts and Entertainment	Playing musical instruments	251	2	True	False	False	True	0.5770431999990251
video_on	action	21	eeg	2	rSVC9YNMIMg	Using uneven bars	Participating_in_sports&Exercise&Recreation	Sports, Exercise, and Recreation	Participating in Sports, Exercise, or Recreation	Doing gymnastics	192	1	True	True	True	True	0.6237325000111014
video_on	action	21	eeg	2	YFl6k2qNhR0	Putting in contact lenses	Grooming	Personal Care	Grooming	Washing, dressing and grooming oneself	351	4	True	False	False	True	0.7322971999819856
video_on	action	21	eeg	2	L2t_xvJK8tc	Hammer throw	Participating_in_sports&Exercise&Recreation	Sports, Exercise, and Recreation	Participating in Sports, Exercise, or Recreation	Playing sports	224	1	True	True	True	True	0.4961308999918401
video_on	action	21	eeg	2	jzOqhTCRRVg	Cleaning shoes	Housework	Household Activities	Housework	Sewing, repairing, & maintaining textiles	134	6	True	False	False	True	0.6198714000056498
video_on	action	21	eeg	2	AGtn6-3_2rg	Ping-pong	Participating_in_sports&Exercise&Recreation	Sports, Exercise, and Recreation	Participating in Sports, Exercise, or Recreation	Playing racquet sports	119	1	True	True	True	True	0.5253182000014931
video_on	action	21	eeg	2	hd7JXvxeEzA	Wakeboarding	Participating_in_sports&Exercise&Recreation	Sports, Exercise, and Recreation	Participating in Sports, Exercise, or Recreation	Participating in water sports	385	1	True	True	True	True	0.4838464999920688
video_on	action	21	eeg	2	A0IIiMolSGM	Ballet	Arts&Entertainment	Socializing, Relaxing, and Leisure	Arts and Entertainment	Attending arts and entertainment	229	2	True	False	False	True	0.5614531000028364
video_on	action	21	eeg	2	SEGeLYPmem4	Fixing bicycle	Vehicles	Household Activities	Vehicles	Vehicle repair and maintenance (by self)	171	11	True	False	False	True	0.4728475999727379
video_on	action	21	eeg	2	02hKVig_TQM	Smoking a cigarette	Relaxing&Leisure	Socializing, Relaxing, and Leisure	Relaxing and Leisure	Tobacco and drug use	201	3	True	False	False	True	0.4700551000132691
video_on	action	21	eeg	2	iPBGqOstcEg	Beach soccer	Participating_in_sports&Exercise&Recreation	Sports, Exercise, and Recreation	Participating in Sports, Exercise, or Recreation	Playing soccer	278	1	True	True	True	True	0.6573669000063092
video_on	action	21	eeg	2	KTtHe_sjYRs	Fun sliding down	Arts&Entertainment	Socializing, Relaxing, and Leisure	Arts and Entertainment	Park activities	313	2	True	False	True	False	0.5474554999964312
video_on	action	21	eeg	2	viwJcnGrTis	Playing congas	Arts&Entertainment	Socializing, Relaxing, and Leisure	Arts and Entertainment	Playing musical instruments	345	2	True	False	False	True	0.4764605000091251
video_on	action	21	eeg	2	LFZFbrcrs68	Ice fishing	Participating_in_sports&Exercise&Recreation	Sports, Exercise, and Recreation	Participating in Sports, Exercise, or Recreation	Fishing	324	1	True	True	False	False	0.4371444999997038
video_on	action	21	eeg	2	pXZzPr0YpIY	Javelin throw	Participating_in_sports&Exercise&Recreation	Sports, Exercise, and Recreation	Participating in Sports, Exercise, or Recreation	Playing sports	116	1	True	True	True	True	0.4667028999829199
video_on	action	21	eeg	2	U8CuyocTtHQ	Hand car wash	Vehicles	Household Activities	Vehicles	Vehicle repair and maintenance (by self)	318	11	True	False	False	True	0.5078738000011072
video_on	action	21	eeg	2	M7Aos-jy6pA	Sharpening knives	Appliances&Tools&Toys	Household Activities	Appliances, Tools, and Toys	Appliance, tool, and toy set-up, repair, & maintenance (by self)	365	10	True	False	False	True	0.5088263000070583
video_on	action	21	eeg	2	vIHLII1Xf8o	Doing fencing	Participating_in_sports&Exercise&Recreation	Sports, Exercise, and Recreation	Participating in Sports, Exercise, or Recreation	Fencing	309	1	True	True	True	True	0.4322469000180717
video_on	action	21	eeg	2	fg37HEn6QuU	Grooming dog	Animals&Pets	Household Activities	Animals and Pets	Care for animals and pets (not veterinary care)	317	8	True	False	False	True	0.5206770999939181
video_on	action	21	eeg	2	6NqDCQ5d_dg	Archery	Participating_in_sports&Exercise&Recreation	Sports, Exercise, and Recreation	Participating in Sports, Exercise, or Recreation	Playing sports	250	1	True	True	True	True	0.4743475999857764
video_on	action	21	eeg	2	Cdv2-JTPBdk	Polishing shoes	Housework	Household Activities	Housework	Sewing, repairing, & maintaining textiles	227	6	True	False	False	True	0.4844944000069517
video_on	action	21	eeg	2	AJZkwpxlbhM	Playing blackjack	Arts&Entertainment	Socializing, Relaxing, and Leisure	Arts and Entertainment	Attending gambling establishments	343	2	True	False	False	True	0.4447338000172749
video_on	action	21	eeg	2	WYr3VYc7RMk	Playing squash	Participating_in_sports&Exercise&Recreation	Sports, Exercise, and Recreation	Participating in Sports, Exercise, or Recreation	Playing racquet sports	194	1	True	True	True	True	0.5197382000042126
video_on	action	21	eeg	2	K3VoIDst85A	Running a marathon	Participating_in_sports&Exercise&Recreation	Sports, Exercise, and Recreation	Participating in Sports, Exercise, or Recreation	Running	362	1	True	True	True	True	0.4299144000106025
video_on	action	21	eeg	2	sHV1mu27Kgg	High jump	Participating_in_sports&Exercise&Recreation	Sports, Exercise, and Recreation	Participating in Sports, Exercise, or Recreation	Playing sports	195	1	True	True	True	True	0.423294000007445
video_on	action	21	eeg	2	KHTE4EvPfqc	Breakdancing	Arts&Entertainment	Socializing, Relaxing, and Leisure	Arts and Entertainment	Dancing	236	2	True	False	False	True	0.9158073000144212
video_on	action	21	eeg	2	kmP0tYv2atA	Capoeira	Participating_in_sports&Exercise&Recreation	Sports, Exercise, and Recreation	Participating in Sports, Exercise, or Recreation	Participating in martial arts	294	1	True	True	True	True	0.5573598000046331
video_on	action	21	eeg	2	hy9h0kuWeKE	Brushing teeth	Grooming	Personal Care	Grooming	Washing, dressing and grooming oneself	148	4	True	False	False	True	0.5102160999958869
video_on	action	21	eeg	2	oQQYuwBrhmw	Playing polo	Participating_in_sports&Exercise&Recreation	Sports, Exercise, and Recreation	Participating in Sports, Exercise, or Recreation	Participating in equestrian sports	75	1	True	True	True	True	0.0050701999862212
video_on	action	21	eeg	2	jQcQqgi4aA0	Washing dishes	Food&Drink_prep.&Presentation&Clean-up	Eating and drinking Activities	Food & Drink Prep., Presentation, & Clean-up	Kitchen and food clean-up	213	5	True	False	False	True	0.4588623999734409
video_on	action	21	eeg	2	JpPjlgY2Il0	Wrapping presents	Household_management	Household Activities	Household Management	Household & personal organization and planning	179	13	True	False	False	True	0.4294391000003088
video_on	action	21	eeg	2	EvDBfllrTzE	Hand washing clothes	Housework	Household Activities	Housework	Laundry	232	6	True	False	False	True	0.4713546999846585
video_on	action	21	eeg	2	VJoCUHnd76c	Waxing skis	Appliances&Tools&Toys	Household Activities	Appliances, Tools, and Toys	Appliance, tool, and toy set-up, repair, & maintenance (by self)	387	10	True	False	False	True	0.5088307000114582
video_on	action	21	eeg	2	iIuOpAmbwUo	Discus throw	Participating_in_sports&Exercise&Recreation	Sports, Exercise, and Recreation	Participating in Sports, Exercise, or Recreation	Playing sports	92	1	True	True	True	True	0.4458605000108946
video_on	action	21	eeg	2	dNEbNPOqLr4	Playing bagpipes	Arts&Entertainment	Socializing, Relaxing, and Leisure	Arts and Entertainment	Playing musical instruments	136	2	True	False	False	True	0.5096379000169691
video_on	action	21	eeg	2	aeEA041TlQg	Getting a piercing	Grooming	Personal Care	Grooming	Washing, dressing and grooming	214	4	True	False	False	True	0.5471706000098493
video_on	action	21	eeg	2	fYWMt0nSv7s	Bungee jumping	Participating_in_sports&Exercise&Recreation	Sports, Exercise, and Recreation	Participating in Sports, Exercise, or Recreation	Playing sports	154	1	True	True	False	False	0.4986870999855455
video_on	action	21	eeg	2	HmdM4DTDfzs	Tumbling	Participating_in_sports&Exercise&Recreation	Sports, Exercise, and Recreation	Participating in Sports, Exercise, or Recreation	Doing gymnastics	258	1	True	True	True	True	0.4601924999733455
video_on	action	21	eeg	2	xbKPFmRCOS0	Spinning	Participating_in_sports&Exercise&Recreation	Sports, Exercise, and Recreation	Participating in Sports, Exercise, or Recreation	Using cardiovascular equipment	117	1	True	True	True	True	0.4945501999754924
video_on	action	21	eeg	2	mxQYjDqkSDU	Grooming horse	Animals&Pets	Household Activities	Animals and Pets	Walking / exercising / playing with animals	95	8	True	False	False	True	0.5970265000069048
video_on	action	21	eeg	2	wwWPJZNEh_s	Rope skipping	Participating_in_sports&Exercise&Recreation	Sports, Exercise, and Recreation	Participating in Sports, Exercise, or Recreation	Working out	361	1	True	True	True	True	0.5857563000172377
video_on	action	21	eeg	2	w3L4VyONgqk	Hanging wallpaper	Interior_maintenance&Repair&Decoration	Household Activities	Interior Maintenance, Repair, & Decoration	Interior arrangement, decoration, & repairs	319	7	True	False	False	True	0.5495715000142809
video_on	action	21	eeg	2	uDJNn6-nZFE	Mixing drinks	Food&Drink_prep.&Presentation&Clean-up	Eating and drinking Activities	Food & Drink Prep., Presentation, & Clean-up	Food and drink preparation	244	5	False	False	False	True	0.0
video_on	action	21	meg	3	id6TXNy-TqI	Using the balance beam	Participating_in_sports&Exercise&Recreation	Sports, Exercise, and Recreation	Participating in Sports, Exercise, or Recreation	Doing gymnastics	180	1	True	True	True	True	0.3484612888423726
video_on	action	21	meg	3	FlHCKsR0pnc	Swinging at the playground	Arts&Entertainment	Socializing, Relaxing, and Leisure	Arts and Entertainment	Park activities	378	2	True	False	False	True	0.3333339370728936
video_on	action	21	meg	3	UQTx00IOujE	Tug of war	Relaxing&Leisure	Socializing, Relaxing, and Leisure	Relaxing and Leisure	Playing games	382	3	True	False	True	False	0.3033358237735228
video_on	action	21	meg	3	9-1FmwihZ1I	Wakeboarding	Participating_in_sports&Exercise&Recreation	Sports, Exercise, and Recreation	Participating in Sports, Exercise, or Recreation	Participating in water sports	385	1	True	True	True	True	0.2947482019808376
video_on	action	21	meg	3	kdrFrjUeEwY	Surfing	Participating_in_sports&Exercise&Recreation	Sports, Exercise, and Recreation	Participating in Sports, Exercise, or Recreation	Participating in water sports	376	1	True	True	True	True	0.3349540778872324
video_on	action	21	meg	3	S44GUkPvC1w	Hitting a pinata	Relaxing&Leisure	Socializing, Relaxing, and Leisure	Relaxing and Leisure	Playing games	321	3	True	False	False	True	0.3432881281769369
video_on	action	21	meg	3	pyQq0t3F12g	Building sandcastles	Arts&Entertainment	Socializing, Relaxing, and Leisure	Arts and Entertainment	Beach activities	286	2	True	False	False	True	0.3180155010632006
video_on	action	21	meg	3	olqRSnYjDO0	Decorating the Christmas tree	Interior_maintenance&Repair&Decoration	Household Activities	Interior Maintenance, Repair, & Decoration	Interior arrangement, decoration, & repairs	302	7	True	False	False	True	0.3341200087597826
video_on	action	21	meg	3	QHXuccNNl04	Long jump	Participating_in_sports&Exercise&Recreation	Sports, Exercise, and Recreation	Participating in Sports, Exercise, or Recreation	Playing sports	80	1	True	True	True	True	0.3261946916027227
video_on	action	21	meg	3	kyl0mdmEu78	Playing water polo	Participating_in_sports&Exercise&Recreation	Sports, Exercise, and Recreation	Participating in Sports, Exercise, or Recreation	Participating in water sports	130	1	True	True	True	True	0.3330429335765075
video_on	action	21	meg	3	KMrP1-7BADs	BMX	Participating_in_sports&Exercise&Recreation	Sports, Exercise, and Recreation	Participating in Sports, Exercise, or Recreation	Biking	274	1	True	True	True	True	0.2620407978538424
video_on	action	21	meg	3	35-SSKcDanY	Fixing bicycle	Vehicles	Household Activities	Vehicles	Vehicle repair and maintenance (by self)	171	11	True	False	False	True	0.334169817448128
video_on	action	21	meg	3	EnR9ah0v1o4	Making a lemonade	Food&Drink_prep.&Presentation&Clean-up	Eating and drinking Activities	Food & Drink Prep., Presentation, & Clean-up	Food and drink preparation	333	5	True	False	False	True	0.344337733098655
video_on	action	21	meg	3	YquNbNoejvY	Disc dog	Animals&Pets	Household Activities	Animals and Pets	Walking / exercising / playing with animals	303	8	True	False	False	True	0.3984375165018718
video_on	action	21	meg	3	j-RHrkcUsyA	Using the rowing machine	Participating_in_sports&Exercise&Recreation	Sports, Exercise, and Recreation	Participating in Sports, Exercise, or Recreation	Using cardiovascular equipment	384	1	True	True	True	True	0.3685758488281863
video_on	action	21	meg	3	mEDak4pT5jA	Laying tile	Interior_maintenance&Repair&Decoration	Household Activities	Interior Maintenance, Repair, & Decoration	Interior arrangement, decoration, & repairs	330	7	True	False	False	True	0.5676068434113404
video_on	action	21	meg	3	3Chjj9KtpvU	High jump	Participating_in_sports&Exercise&Recreation	Sports, Exercise, and Recreation	Participating in Sports, Exercise, or Recreation	Playing sports	195	1	True	True	False	False	0.5749954342027195
video_on	action	21	meg	3	E4h2G17Ukbc	Futsal	Participating_in_sports&Exercise&Recreation	Sports, Exercise, and Recreation	Participating in Sports, Exercise, or Recreation	Playing soccer	315	1	True	True	True	True	0.449837065214524
video_on	action	21	meg	3	Q8t8GvCse5w	Playing accordion	Arts&Entertainment	Socializing, Relaxing, and Leisure	Arts and Entertainment	Playing musical instruments	267	2	True	False	False	True	0.6151207106013317
video_on	action	21	meg	3	bWm6cpJqu6U	Longboarding	Participating_in_sports&Exercise&Recreation	Sports, Exercise, and Recreation	Participating in Sports, Exercise, or Recreation	Playing sports	331	1	True	True	True	True	0.2967788871465018
video_on	action	21	meg	3	afZGG_5t0zk	Paintball	Participating_in_sports&Exercise&Recreation	Sports, Exercise, and Recreation	Participating in Sports, Exercise, or Recreation	Playing sports	141	1	True	True	False	False	0.6083657467243029
video_on	action	21	meg	3	7XIKQVfP3jQ	Making a sandwich	Food&Drink_prep.&Presentation&Clean-up	Eating and drinking Activities	Food & Drink Prep., Presentation, & Clean-up	Food and drink preparation	129	5	True	False	False	True	0.4784136687085265
video_on	action	21	meg	3	K2CE5FszgQ4	Rock-paper-scissors	Relaxing&Leisure	Socializing, Relaxing, and Leisure	Relaxing and Leisure	Playing games	358	3	True	False	False	True	0.3362931769661372
video_on	action	21	meg	3	zTq4bdrP1cM	Using the monkey bar	Arts&Entertainment	Socializing, Relaxing, and Leisure	Arts and Entertainment	Park activities	383	2	True	False	True	False	0.311997102049645
video_on	action	21	meg	3	1PTal-HAF7Y	Hand washing clothes	Housework	Household Activities	Housework	Laundry	232	6	True	False	False	True	0.2967734534759074
video_on	action	21	meg	3	ryXZbAnGgZc	Playing bagpipes	Arts&Entertainment	Socializing, Relaxing, and Leisure	Arts and Entertainment	Playing musical instruments	136	2	True	False	False	True	0.4330125955602852
video_on	action	21	meg	3	W4az1HfUd3I	Dodgeball	Participating_in_sports&Exercise&Recreation	Sports, Exercise, and Recreation	Participating in Sports, Exercise, or Recreation	Playing sports	161	1	True	True	True	True	0.3385276249464368
video_on	action	21	meg	3	aIagNYBs-eQ	Mowing the lawn	Lawn&Garden&Houseplants	Household Activities	Lawn, Garden, and Houseplants	Lawn, garden, and houseplant care	218	9	True	False	False	True	0.3052222146798158
video_on	action	21	meg	3	URvkewn7l8U	Cutting the grass	Lawn&Garden&Houseplants	Household Activities	Lawn, Garden, and Houseplants	Lawn, garden, and houseplant care	301	9	True	False	False	True	0.3373877606500173
video_on	action	21	meg	3	-TxodQYuXQo	Sumo	Participating_in_sports&Exercise&Recreation	Sports, Exercise, and Recreation	Participating in Sports, Exercise, or Recreation	Wrestling	375	1	True	True	False	False	0.4415476918075001
video_on	action	21	meg	3	2gYxT4W7-gQ	Playing ice hockey	Participating_in_sports&Exercise&Recreation	Sports, Exercise, and Recreation	Participating in Sports, Exercise, or Recreation	Playing hockey	347	1	True	True	True	True	0.2816310081834672
video_on	action	21	meg	3	Qc_2g_B3RoE	Baton twirling	Participating_in_sports&Exercise&Recreation	Sports, Exercise, and Recreation	Participating in Sports, Exercise, or Recreation	Playing sports	277	1	True	True	True	True	0.3154381277854554
video_on	action	21	meg	3	Y470iruZKwA	Playing field hockey	Participating_in_sports&Exercise&Recreation	Sports, Exercise, and Recreation	Participating in Sports, Exercise, or Recreation	Playing hockey	94	1	True	True	True	True	0.2901347098668339
video_on	action	21	meg	3	-Lmv0rcTznY	Getting a tattoo	Grooming	Personal Care	Grooming	Washing, dressing and grooming	187	4	True	False	False	True	0.3686546371172881
video_on	action	21	meg	3	AwTNNLUwdr8	Riding bumper cars	Relaxing&Leisure	Socializing, Relaxing, and Leisure	Relaxing and Leisure	Playing games	356	3	True	False	False	True	0.346365097691887
video_on	action	21	meg	3	A5k08sFTkyU	Triple jump	Participating_in_sports&Exercise&Recreation	Sports, Exercise, and Recreation	Participating in Sports, Exercise, or Recreation	Playing sports	155	1	True	True	True	True	0.4920748337899567
video_on	action	21	meg	3	MTXavs3xtbs	Rollerblading	Participating_in_sports&Exercise&Recreation	Sports, Exercise, and Recreation	Participating in Sports, Exercise, or Recreation	Playing sports	359	1	True	True	True	True	0.2987851207872154
video_on	action	21	meg	3	npJ2HtZRklY	Calf roping	Participating_in_sports&Exercise&Recreation	Sports, Exercise, and Recreation	Participating in Sports, Exercise, or Recreation	Participating in rodeo competitions	290	1	True	True	True	True	0.427012610642123
video_on	action	21	meg	3	_cwdxDY_-HM	Playing racquetball	Participating_in_sports&Exercise&Recreation	Sports, Exercise, and Recreation	Participating in Sports, Exercise, or Recreation	Playing racquet sports	253	1	True	True	True	True	0.5311366192036076
video_on	action	21	meg	3	kVUEB1_3cak	Preparing pasta	Food&Drink_prep.&Presentation&Clean-up	Eating and drinking Activities	Food & Drink Prep., Presentation, & Clean-up	Food and drink preparation	186	5	True	False	False	True	0.8972763703059172
video_on	action	21	meg	3	UcH1PVafHgQ	Spinning	Participating_in_sports&Exercise&Recreation	Sports, Exercise, and Recreation	Participating in Sports, Exercise, or Recreation	Using cardiovascular equipment	117	1	True	True	True	True	0.5708863682666561
video_on	action	21	meg	3	xsD0B7G2SS0	Camel ride	Participating_in_sports&Exercise&Recreation	Sports, Exercise, and Recreation	Participating in Sports, Exercise, or Recreation	Playing sports	291	1	True	True	False	False	0.8194637264386984
video_on	action	21	meg	3	cvbEAdjLF0c	Painting	Interior_maintenance&Repair&Decoration	Household Activities	Interior Maintenance, Repair, & Decoration	Interior arrangement, decoration, & repairs	217	7	True	False	False	True	0.2995902103284606
video_on	action	21	meg	3	ErSIT-iJAEs	Brushing teeth	Grooming	Personal Care	Grooming	Washing, dressing and grooming oneself	148	4	True	False	False	True	0.283700634696288
video_on	action	21	meg	3	fy5uJkcdAzg	Hammer throw	Participating_in_sports&Exercise&Recreation	Sports, Exercise, and Recreation	Participating in Sports, Exercise, or Recreation	Playing sports	224	1	True	True	True	True	0.2672755401581526
video_on	action	21	meg	3	x0XI8MKu8Yc	Pole vault	Participating_in_sports&Exercise&Recreation	Sports, Exercise, and Recreation	Participating in Sports, Exercise, or Recreation	Playing sports	106	1	True	True	True	True	0.2996442452131305
video_on	action	21	meg	3	X2kJDeG8qSE	Tango	Arts&Entertainment	Socializing, Relaxing, and Leisure	Arts and Entertainment	Dancing	73	2	True	False	True	False	0.3943535058642737
video_on	action	21	meg	3	oqnYo4iQRYU	Shaving	Grooming	Personal Care	Grooming	Washing, dressing and grooming oneself	190	4	True	False	False	True	0.3477286483102944
video_on	action	21	meg	3	-gxfpW08UKE	Playing lacrosse	Participating_in_sports&Exercise&Recreation	Sports, Exercise, and Recreation	Participating in Sports, Exercise, or Recreation	Playing racquet sports	209	1	True	True	True	True	0.2758432384725893
video_on	action	21	meg	3	_uqvtNRMgQU	Painting fence	Exterior_maintenance&Repair&Decoration	Household Activities	Exterior Maintenance, Repair, & Decoration	Painting fence	336	12	True	False	False	True	0.3388627015956444
video_on	action	21	meg	3	h_ILYfWTEbk	Sailing	Participating_in_sports&Exercise&Recreation	Sports, Exercise, and Recreation	Participating in Sports, Exercise, or Recreation	Participating in water sports	240	1	True	True	True	True	0.3024401729780948
video_on	action	21	meg	3	URTlFWeksuk	Playing violin	Arts&Entertainment	Socializing, Relaxing, and Leisure	Arts and Entertainment	Playing musical instruments	234	2	True	False	False	True	0.3251571615110151
video_on	action	21	meg	3	rh-eJnJug1c	Ping-pong	Participating_in_sports&Exercise&Recreation	Sports, Exercise, and Recreation	Participating in Sports, Exercise, or Recreation	Playing racquet sports	119	1	True	True	True	True	0.2927072532038437
video_on	action	21	meg	3	U7Nt_yNHYcY	Discus throw	Participating_in_sports&Exercise&Recreation	Sports, Exercise, and Recreation	Participating in Sports, Exercise, or Recreation	Playing sports	92	1	True	True	False	False	0.4206766434945166
video_on	action	21	meg	3	ha40KZvmcEo	Kayaking	Participating_in_sports&Exercise&Recreation	Sports, Exercise, and Recreation	Participating in Sports, Exercise, or Recreation	Participating in water sports	254	1	True	True	True	True	0.2789588474552147
video_on	action	21	meg	3	GvX4CKerwLo	Bullfighting	Participating_in_sports&Exercise&Recreation	Sports, Exercise, and Recreation	Participating in Sports, Exercise, or Recreation	Participating in rodeo competitions	288	1	True	True	False	False	0.3330661776271881
video_on	action	21	meg	3	xBqoH9ZHBiE	Fixing the roof	Exterior_maintenance&Repair&Decoration	Household Activities	Exterior Maintenance, Repair, & Decoration	Exterior repair, improvements, & decoration	311	12	True	False	False	True	0.3651565577602014
video_on	action	21	meg	3	uleLRkolEVA	Drinking coffee	Food&Drink_prep.&Presentation&Clean-up	Eating and drinking Activities	Food & Drink Prep., Presentation, & Clean-up	Eating and Drinking	68	5	True	False	False	True	0.0653417555440682
video_on	action	21	meg	3	fc-iINGtiBU	Washing hands	Grooming	Personal Care	Grooming	Washing, dressing and grooming oneself	173	4	True	False	False	True	0.3734546854102518
video_on	action	21	meg	3	iJ5DFauNwe0	Hand car wash	Vehicles	Household Activities	Vehicles	Vehicle repair and maintenance (by self)	318	11	True	False	False	True	0.2717580203316174
video_on	action	21	meg	3	8imSvyIUuc0	Drum corps	Arts&Entertainment	Socializing, Relaxing, and Leisure	Arts and Entertainment	Playing musical instruments	307	2	True	False	False	True	0.3978672824741807
video_on	action	21	meg	3	qdMjXJTsX94	Playing drums	Arts&Entertainment	Socializing, Relaxing, and Leisure	Arts and Entertainment	Playing musical instruments	346	2	True	False	False	True	0.3967714913160307
video_on	action	21	meg	3	bOPOi991cIs	Playing saxophone	Arts&Entertainment	Socializing, Relaxing, and Leisure	Arts and Entertainment	Playing musical instruments	109	2	True	False	False	True	0.3268391858437098
video_on	action	21	meg	3	WTn5SJLTnek	Mixing drinks	Food&Drink_prep.&Presentation&Clean-up	Eating and drinking Activities	Food & Drink Prep., Presentation, & Clean-up	Food and drink preparation	244	5	True	False	False	True	0.3183327673323219
video_on	action	21	meg	3	NNqxHcuHaV0	Brushing hair	Grooming	Personal Care	Grooming	Washing, dressing and grooming oneself	125	4	True	False	False	True	0.3983611431904137
video_on	action	21	meg	3	-Ics0iCgsy8	Waxing skis	Appliances&Tools&Toys	Household Activities	Appliances, Tools, and Toys	Appliance, tool, and toy set-up, repair, & maintenance (by self)	387	10	True	False	False	True	0.3586065641720779
video_on	action	21	meg	3	PoGkEASlgdI	Cleaning windows	Housework	Household Activities	Housework	Interior cleaning	143	6	True	False	False	True	0.3347675217228243
video_on	action	21	meg	3	Le9zBzOs9rU	Snatch	Participating_in_sports&Exercise&Recreation	Sports, Exercise, and Recreation	Participating in Sports, Exercise, or Recreation	Weightlifting	79	1	True	True	True	True	0.4629156195442192
video_on	action	21	meg	3	43zJ4uTpcxU	Ironing clothes	Housework	Household Activities	Housework	Laundry	83	6	True	False	False	True	0.287128378127818
video_on	action	21	meg	3	sRicaNGPU0w	Kneeling	Participating_in_sports&Exercise&Recreation	Sports, Exercise, and Recreation	Participating in Sports, Exercise, or Recreation	Working out	328	1	True	True	True	True	0.2813795497495448
video_on	action	21	meg	3	-aMklJaoRug	Making an omelette	Food&Drink_prep.&Presentation&Clean-up	Eating and drinking Activities	Food & Drink Prep., Presentation, & Clean-up	Food and drink preparation	334	5	True	False	False	True	0.2874800576682901
video_on	action	21	meg	3	pgyQuHMhI1U	Archery	Participating_in_sports&Exercise&Recreation	Sports, Exercise, and Recreation	Participating in Sports, Exercise, or Recreation	Playing sports	250	1	True	True	True	True	0.5457269427279243
video_on	action	21	meg	3	h5fX5z-unJc	Playing pool	Relaxing&Leisure	Socializing, Relaxing, and Leisure	Relaxing and Leisure	Playing games	348	3	True	False	True	False	0.2737437267351197
video_on	action	21	meg	3	Ao9Tn4DpqyY	Baking cookies	Food&Drink_prep.&Presentation&Clean-up	Eating and drinking Activities	Food & Drink Prep., Presentation, & Clean-up	Food and drink preparation	276	5	True	False	False	True	0.2879633528791601
video_on	action	21	meg	3	WxjilomtOWI	Capoeira	Participating_in_sports&Exercise&Recreation	Sports, Exercise, and Recreation	Participating in Sports, Exercise, or Recreation	Participating in martial arts	294	1	True	True	True	True	0.338099873973988
video_on	action	21	meg	3	r7CSjbKTRf0	Playing flauta	Arts&Entertainment	Socializing, Relaxing, and Leisure	Arts and Entertainment	Playing musical instruments	149	2	True	False	False	True	0.3122473529801937
video_on	action	21	meg	3	ZPV4DXtuDQI	Slacklining	Relaxing&Leisure	Socializing, Relaxing, and Leisure	Relaxing and Leisure	Playing games	371	3	True	False	False	True	0.3361597500479547
video_on	action	21	meg	3	OpKlzLpL6Qs	Playing squash	Participating_in_sports&Exercise&Recreation	Sports, Exercise, and Recreation	Participating in Sports, Exercise, or Recreation	Playing racquet sports	194	1	True	True	False	False	0.4005475937156006
video_on	action	21	meg	3	wiCtxYM-Mms	Smoking hookah	Relaxing&Leisure	Socializing, Relaxing, and Leisure	Relaxing and Leisure	Tobacco and drug use	189	3	True	False	False	True	0.3286476940847933
video_on	action	21	meg	3	lP5PmMwxWy4	Throwing darts	Relaxing&Leisure	Socializing, Relaxing, and Leisure	Relaxing and Leisure	Playing games	380	3	True	False	False	True	0.2968443931313231
video_on	action	21	meg	3	YJ_ICdMv4So	Swimming	Participating_in_sports&Exercise&Recreation	Sports, Exercise, and Recreation	Participating in Sports, Exercise, or Recreation	Participating in water sports	377	1	True	True	True	True	0.2730304059368791
video_on	action	21	meg	3	LLZSy6vK3Cc	Playing badminton	Participating_in_sports&Exercise&Recreation	Sports, Exercise, and Recreation	Participating in Sports, Exercise, or Recreation	Playing racquet sports	268	1	True	True	True	True	0.2638586640678113
video_on	action	21	meg	3	l-YtPYZ_534	Croquet	Participating_in_sports&Exercise&Recreation	Sports, Exercise, and Recreation	Participating in Sports, Exercise, or Recreation	Playing sports	299	1	True	True	True	True	0.4333872172865085
video_on	action	21	meg	3	o-6j0eDDqCE	Playing piano	Arts&Entertainment	Socializing, Relaxing, and Leisure	Arts and Entertainment	Playing musical instruments	197	2	True	False	False	True	0.2973249715141719
video_on	action	21	meg	3	Y85WVdsPakE	Carving jack-o-lanterns	Interior_maintenance&Repair&Decoration	Household Activities	Interior Maintenance, Repair, & Decoration	Interior arrangement, decoration, & repairs	295	7	True	False	False	True	0.0053425102087203
video_on	action	21	meg	3	fg7KoLk26BY	Tai chi	Participating_in_sports&Exercise&Recreation	Sports, Exercise, and Recreation	Participating in Sports, Exercise, or Recreation	Participating in martial arts	263	1	True	True	True	True	0.30000528274104
video_on	action	21	meg	3	_AQrTkz5_5A	Doing crunches	Participating_in_sports&Exercise&Recreation	Sports, Exercise, and Recreation	Participating in Sports, Exercise, or Recreation	Working out	305	1	True	True	True	True	0.2579812387266429
video_on	action	21	meg	3	GcaYiBXQhQs	Shoveling snow	Exterior_maintenance&Repair&Decoration	Household Activities	Exterior Maintenance, Repair, & Decoration	Exterior cleaning	183	12	True	False	False	True	0.3046021719637792
video_on	action	21	meg	3	91GVmO8Ikmo	Playing harmonica	Arts&Entertainment	Socializing, Relaxing, and Leisure	Arts and Entertainment	Playing musical instruments	100	2	True	False	False	True	0.4021912804601015
video_on	action	21	meg	3	nxLme0398es	Spread mulch	Lawn&Garden&Houseplants	Household Activities	Lawn, Garden, and Houseplants	Lawn, garden, and houseplant care	374	9	False	False	False	True	0.0
video_on	action	21	eeg	3	j9lNfpCd_44	Riding bumper cars	Relaxing&Leisure	Socializing, Relaxing, and Leisure	Relaxing and Leisure	Playing games	356	3	True	False	True	False	0.5764608000172302
video_on	action	21	eeg	3	6cOlHsfUafc	Hurling	Participating_in_sports&Exercise&Recreation	Sports, Exercise, and Recreation	Participating in Sports, Exercise, or Recreation	Playing sports	323	1	True	True	True	True	0.46422550000716
video_on	action	21	eeg	3	osb4hJ0Wp7k	Making an omelette	Food&Drink_prep.&Presentation&Clean-up	Eating and drinking Activities	Food & Drink Prep., Presentation, & Clean-up	Food and drink preparation	334	5	True	False	False	True	0.6362189999781549
video_on	action	21	eeg	3	e2k0Ia0jJCM	Playing badminton	Participating_in_sports&Exercise&Recreation	Sports, Exercise, and Recreation	Participating in Sports, Exercise, or Recreation	Playing racquet sports	268	1	True	True	True	True	0.5267273999925237
video_on	action	21	eeg	3	1xrAeOoNs5g	Swinging at the playground	Arts&Entertainment	Socializing, Relaxing, and Leisure	Arts and Entertainment	Park activities	378	2	True	False	False	True	0.6207436000113375
