event_name	task	subject	session	run	video_id	class_name	raw_superclass_name	superclass_level0	superclass_level1	superclass_level2	class_id	superclass_id	is_resp	stim_is_sports	resp_is_sports	resp_is_right	resp_time
video_on	action	1	meg	1	0Qo8FzNJ460	Drum corps	Arts&Entertainment	Socializing, Relaxing, and Leisure	Arts and Entertainment	Playing musical instruments	307	2	True	False	False	True	0.4904194319128692
video_on	action	1	meg	1	HByszN4xrLU	Playing kickball	Participating_in_sports&Exercise&Recreation	Sports, Exercise, and Recreation	Participating in Sports, Exercise, or Recreation	Playing sports	257	1	True	True	True	True	0.3862248109167012
video_on	action	1	meg	1	HZW1njYbYPI	Hand car wash	Vehicles	Household Activities	Vehicles	Vehicle repair and maintenance (by self)	318	11	True	False	False	True	0.3441001963656163
video_on	action	1	meg	1	iyz1BjhV1J4	Shuffleboard	Relaxing&Leisure	Socializing, Relaxing, and Leisure	Relaxing and Leisure	Playing games	368	3	True	False	False	True	0.4403749816992786
video_on	action	1	meg	1	Q_rVIfFRxbk	Croquet	Participating_in_sports&Exercise&Recreation	Sports, Exercise, and Recreation	Participating in Sports, Exercise, or Recreation	Playing sports	299	1	True	True	True	True	0.3365066811161341
video_on	action	1	meg	1	9PhZthMj_do	Fixing bicycle	Vehicles	Household Activities	Vehicles	Vehicle repair and maintenance (by self)	171	11	True	False	False	True	0.5921314820711814
video_on	action	1	meg	1	4GLcWLijqvs	Starting a campfire	Participating_in_sports&Exercise&Recreation	Sports, Exercise, and Recreation	Participating in Sports, Exercise, or Recreation	Playing sports	153	1	True	True	False	False	0.5440428412516667
video_on	action	1	meg	1	fSNi_-ThHRk	Kayaking	Participating_in_sports&Exercise&Recreation	Sports, Exercise, and Recreation	Participating in Sports, Exercise, or Recreation	Participating in water sports	254	1	True	True	True	True	0.303093704672392
video_on	action	1	meg	1	inWJtx9wy9A	Hand washing clothes	Housework	Household Activities	Housework	Laundry	232	6	True	False	False	True	0.3532622230536617
video_on	action	1	meg	1	IGQusCP8OyA	Doing crunches	Participating_in_sports&Exercise&Recreation	Sports, Exercise, and Recreation	Participating in Sports, Exercise, or Recreation	Working out	305	1	True	True	True	True	0.3315430487864432
video_on	action	1	meg	1	4q6NYoLXemc	Dodgeball	Participating_in_sports&Exercise&Recreation	Sports, Exercise, and Recreation	Participating in Sports, Exercise, or Recreation	Playing sports	161	1	True	True	True	True	0.3288135490893182
video_on	action	1	meg	1	KOnVUshJJCY	Polishing shoes	Housework	Household Activities	Housework	Sewing, repairing, & maintaining textiles	227	6	True	False	False	True	0.352915979286081
video_on	action	1	meg	1	b7MbntUpa-s	Hula hoop	Relaxing&Leisure	Socializing, Relaxing, and Leisure	Relaxing and Leisure	Playing games	322	3	True	False	True	False	0.3531620025387383
video_on	action	1	meg	1	4fYOCseWeZM	Horseback riding	Participating_in_sports&Exercise&Recreation	Sports, Exercise, and Recreation	Participating in Sports, Exercise, or Recreation	Participating in equestrian sports	175	1	True	True	True	True	0.3058920305070387
video_on	action	1	meg	1	mY_JVOcwk4M	Fun sliding down	Arts&Entertainment	Socializing, Relaxing, and Leisure	Arts and Entertainment	Park activities	313	2	True	False	False	True	0.3373347078436381
video_on	action	1	meg	1	P7SauSudA0Y	Swimming	Participating_in_sports&Exercise&Recreation	Sports, Exercise, and Recreation	Participating in Sports, Exercise, or Recreation	Participating in water sports	377	1	True	True	True	True	0.3450812706873876
video_on	action	1	meg	1	A2LfKuwDf3U	Drinking coffee	Food&Drink_prep.&Presentation&Clean-up	Eating and drinking Activities	Food & Drink Prep., Presentation, & Clean-up	Eating and Drinking	68	5	True	False	False	True	0.3857327644104771
video_on	action	1	meg	1	EMTn4bz-NjM	Sailing	Participating_in_sports&Exercise&Recreation	Sports, Exercise, and Recreation	Participating in Sports, Exercise, or Recreation	Participating in water sports	240	1	True	True	False	False	0.3395869526170827
video_on	action	1	meg	1	rNCMI_mgt2I	Shoveling snow	Exterior_maintenance&Repair&Decoration	Household Activities	Exterior Maintenance, Repair, & Decoration	Exterior cleaning	183	12	True	False	False	True	0.3401991429941517
video_on	action	1	meg	1	3us7_93sftI	Pole vault	Participating_in_sports&Exercise&Recreation	Sports, Exercise, and Recreation	Participating in Sports, Exercise, or Recreation	Playing sports	106	1	True	True	True	True	0.3389394435648682
video_on	action	1	meg	1	SfpHt47XQ8o	Rock-paper-scissors	Relaxing&Leisure	Socializing, Relaxing, and Leisure	Relaxing and Leisure	Playing games	358	3	True	False	False	True	0.3711207943983936
video_on	action	1	meg	1	4ijB4wXwOU8	Breakdancing	Arts&Entertainment	Socializing, Relaxing, and Leisure	Arts and Entertainment	Dancing	236	2	True	False	True	False	0.4125994092423752
video_on	action	1	meg	1	QR2AF6WVYRU	Putting in contact lenses	Grooming	Personal Care	Grooming	Washing, dressing and grooming oneself	351	4	True	False	False	True	0.3142227099083357
video_on	action	1	meg	1	42RCay3en9E	Canoeing	Participating_in_sports&Exercise&Recreation	Sports, Exercise, and Recreation	Participating in Sports, Exercise, or Recreation	Boating	292	1	True	True	True	True	0.3228745779492783
video_on	action	1	meg	1	4Gfk0zrZTkM	Tumbling	Participating_in_sports&Exercise&Recreation	Sports, Exercise, and Recreation	Participating in Sports, Exercise, or Recreation	Doing gymnastics	258	1	True	True	True	True	0.3236319673255821
video_on	action	1	meg	1	8zUB7sCkLWo	Welding	Appliances&Tools&Toys	Household Activities	Appliances, Tools, and Toys	Appliance, tool, and toy set-up, repair, & maintenance (by self)	388	10	True	False	False	True	0.3631215671830432
video_on	action	1	meg	1	90HkewujGj0	Playing ice hockey	Participating_in_sports&Exercise&Recreation	Sports, Exercise, and Recreation	Participating in Sports, Exercise, or Recreation	Playing hockey	347	1	True	True	True	True	0.3102431705906383
video_on	action	1	meg	1	ue3C67eGyTE	Smoking a cigarette	Relaxing&Leisure	Socializing, Relaxing, and Leisure	Relaxing and Leisure	Tobacco and drug use	201	3	True	False	False	True	0.4761808738803665
video_on	action	1	meg	1	mhvJRuu39pc	Playing bagpipes	Arts&Entertainment	Socializing, Relaxing, and Leisure	Arts and Entertainment	Playing musical instruments	136	2	True	False	False	True	0.2756704133644234
video_on	action	1	meg	1	nnilXtZeUf4	Kneeling	Participating_in_sports&Exercise&Recreation	Sports, Exercise, and Recreation	Participating in Sports, Exercise, or Recreation	Working out	328	1	True	True	True	True	0.3084829723234179
video_on	action	1	meg	1	o2-_9dwsAXU	Doing fencing	Participating_in_sports&Exercise&Recreation	Sports, Exercise, and Recreation	Participating in Sports, Exercise, or Recreation	Fencing	309	1	True	True	True	True	0.2687515753787011
video_on	action	1	meg	1	Rv_P3pdwUw0	Playing accordion	Arts&Entertainment	Socializing, Relaxing, and Leisure	Arts and Entertainment	Playing musical instruments	267	2	True	False	False	True	0.3089013627877648
video_on	action	1	meg	1	QxaAMWcdZtM	Playing polo	Participating_in_sports&Exercise&Recreation	Sports, Exercise, and Recreation	Participating in Sports, Exercise, or Recreation	Participating in equestrian sports	75	1	True	True	True	True	0.2845468719579003
video_on	action	1	meg	1	_Jrn5WmTxsY	Playing flauta	Arts&Entertainment	Socializing, Relaxing, and Leisure	Arts and Entertainment	Playing musical instruments	149	2	True	False	False	True	0.3323336437551916
video_on	action	1	meg	1	vOHrB0-_kVk	Archery	Participating_in_sports&Exercise&Recreation	Sports, Exercise, and Recreation	Participating in Sports, Exercise, or Recreation	Playing sports	250	1	True	True	True	True	0.3299211065309464
video_on	action	1	meg	1	HfQ1gsJHv1Q	Assembling bicycle	Vehicles	Household Activities	Vehicles	Vehicle repair and maintenance (by self)	273	11	True	False	False	True	0.4629415023114234
video_on	action	1	meg	1	-yh3WgsMCIU	Spread mulch	Lawn&Garden&Houseplants	Household Activities	Lawn, Garden, and Houseplants	Lawn, garden, and houseplant care	374	9	True	False	False	True	0.2916404921070352
video_on	action	1	meg	1	ZFpP2pwSB7Y	Washing hands	Grooming	Personal Care	Grooming	Washing, dressing and grooming oneself	173	4	True	False	False	True	0.2758832310250909
video_on	action	1	meg	1	taqdlBC5s3I	Playing beach volleyball	Participating_in_sports&Exercise&Recreation	Sports, Exercise, and Recreation	Participating in Sports, Exercise, or Recreation	Playing volleyball	341	1	True	True	True	True	0.341960548737461
video_on	action	1	meg	1	l7IQFRexMAI	Snowboarding	Participating_in_sports&Exercise&Recreation	Sports, Exercise, and Recreation	Participating in Sports, Exercise, or Recreation	Skiing, ice skating, snowboarding	373	1	True	True	True	True	0.3014062568390727
video_on	action	1	meg	1	9XTLNGy5O4s	Making an omelette	Food&Drink_prep.&Presentation&Clean-up	Eating and drinking Activities	Food & Drink Prep., Presentation, & Clean-up	Food and drink preparation	334	5	True	False	False	True	0.3743257378059752
video_on	action	1	meg	1	nvZDR9JHvwQ	Getting a tattoo	Grooming	Personal Care	Grooming	Washing, dressing and grooming	187	4	True	False	False	True	0.3104798359036067
video_on	action	1	meg	1	foPlg7sY8Oo	Making a lemonade	Food&Drink_prep.&Presentation&Clean-up	Eating and drinking Activities	Food & Drink Prep., Presentation, & Clean-up	Food and drink preparation	333	5	True	False	False	True	0.3207294966787231
video_on	action	1	meg	1	kAzS67tUaNM	Playing squash	Participating_in_sports&Exercise&Recreation	Sports, Exercise, and Recreation	Participating in Sports, Exercise, or Recreation	Playing racquet sports	194	1	True	True	True	True	0.3187320293595803
video_on	action	1	meg	1	ubQT9tCF18o	Playing blackjack	Arts&Entertainment	Socializing, Relaxing, and Leisure	Arts and Entertainment	Attending gambling establishments	343	2	True	False	False	True	0.4541978660881796
video_on	action	1	meg	1	ehHw9leBMno	Playing guitarra	Arts&Entertainment	Socializing, Relaxing, and Leisure	Arts and Entertainment	Playing musical instruments	251	2	True	False	False	True	0.2951171176337084
video_on	action	1	meg	1	F1Rov3qBidQ	Bungee jumping	Participating_in_sports&Exercise&Recreation	Sports, Exercise, and Recreation	Participating in Sports, Exercise, or Recreation	Playing sports	154	1	True	True	True	True	0.3512243052859958
video_on	action	1	meg	1	U83kufbGRY0	Calf roping	Participating_in_sports&Exercise&Recreation	Sports, Exercise, and Recreation	Participating in Sports, Exercise, or Recreation	Participating in rodeo competitions	290	1	True	True	True	True	0.3267357846102641
video_on	action	1	meg	1	kzqjwvgJxYw	Running a marathon	Participating_in_sports&Exercise&Recreation	Sports, Exercise, and Recreation	Participating in Sports, Exercise, or Recreation	Running	362	1	True	True	True	True	0.5416203423496881
video_on	action	1	meg	1	AGgyOwQqZWw	Playing racquetball	Participating_in_sports&Exercise&Recreation	Sports, Exercise, and Recreation	Participating in Sports, Exercise, or Recreation	Playing racquet sports	253	1	True	True	True	True	0.3037961538871059
video_on	action	1	meg	1	vbFGmSrOqmc	Paintball	Participating_in_sports&Exercise&Recreation	Sports, Exercise, and Recreation	Participating in Sports, Exercise, or Recreation	Playing sports	141	1	True	True	False	False	0.5832064225651266
video_on	action	1	meg	1	1-ejcALGNsE	Playing badminton	Participating_in_sports&Exercise&Recreation	Sports, Exercise, and Recreation	Participating in Sports, Exercise, or Recreation	Playing racquet sports	268	1	True	True	True	True	0.2713893068935249
video_on	action	1	meg	1	juY0mHx5uEQ	Wakeboarding	Participating_in_sports&Exercise&Recreation	Sports, Exercise, and Recreation	Participating in Sports, Exercise, or Recreation	Participating in water sports	385	1	True	True	True	True	0.3458673376212573
video_on	action	1	meg	1	5yVxzaVJC7E	Long jump	Participating_in_sports&Exercise&Recreation	Sports, Exercise, and Recreation	Participating in Sports, Exercise, or Recreation	Playing sports	80	1	True	True	True	True	0.3262618502458281
video_on	action	1	meg	1	pTadQv2v8AA	Using parallel bars	Participating_in_sports&Exercise&Recreation	Sports, Exercise, and Recreation	Participating in Sports, Exercise, or Recreation	Doing gymnastics	88	1	True	True	True	True	0.1038021912672775
video_on	action	1	meg	1	P7VdvfUdVBE	Mooping floor	Housework	Household Activities	Housework	Interior cleaning	335	6	True	False	False	True	0.5119976333471641
video_on	action	1	meg	1	ZDiPGfOlVyA	Bullfighting	Participating_in_sports&Exercise&Recreation	Sports, Exercise, and Recreation	Participating in Sports, Exercise, or Recreation	Participating in rodeo competitions	288	1	True	True	False	False	0.6322676853737903
video_on	action	1	meg	1	ay-P-dAViL8	Decorating the Christmas tree	Interior_maintenance&Repair&Decoration	Household Activities	Interior Maintenance, Repair, & Decoration	Interior arrangement, decoration, & repairs	302	7	True	False	False	True	0.5784227041726808
video_on	action	1	meg	1	dvlV-AILHu8	Carving jack-o-lanterns	Interior_maintenance&Repair&Decoration	Household Activities	Interior Maintenance, Repair, & Decoration	Interior arrangement, decoration, & repairs	295	7	True	False	False	True	0.4801918075763751
video_on	action	1	meg	1	l-foaW1WUKw	Cricket	Participating_in_sports&Exercise&Recreation	Sports, Exercise, and Recreation	Participating in Sports, Exercise, or Recreation	Playing sports	82	1	True	True	True	True	0.3525757728980352
video_on	action	1	meg	1	n3JwPEgK_Fw	Playing drums	Arts&Entertainment	Socializing, Relaxing, and Leisure	Arts and Entertainment	Playing musical instruments	346	2	True	False	False	True	0.2808314680341937
video_on	action	1	meg	1	dbjEQ7KR2v0	Skiing	Participating_in_sports&Exercise&Recreation	Sports, Exercise, and Recreation	Participating in Sports, Exercise, or Recreation	Skiing, ice skating, snowboarding	369	1	True	True	True	True	0.2969542925020505
video_on	action	1	meg	1	Pymx7YQzb90	Cutting the grass	Lawn&Garden&Houseplants	Household Activities	Lawn, Garden, and Houseplants	Lawn, garden, and houseplant care	301	9	True	False	False	True	0.5297976421011299
video_on	action	1	meg	1	GExEVG4PFBQ	Chopping wood	Interior_maintenance&Repair&Decoration	Household Activities	Interior Maintenance, Repair, & Decoration	Heating and cooling	110	7	True	False	False	True	0.331375511479564
video_on	action	1	meg	1	fi54Wpkjr7k	Wrapping presents	Household_management	Household Activities	Household Management	Household & personal organization and planning	179	13	True	False	False	True	0.3039772752999852
video_on	action	1	meg	1	odXvWWbVd6E	Beach soccer	Participating_in_sports&Exercise&Recreation	Sports, Exercise, and Recreation	Participating in Sports, Exercise, or Recreation	Playing soccer	278	1	True	True	False	False	0.005126037863647
video_on	action	1	meg	1	sDKT6P-ajis	Doing step aerobics	Participating_in_sports&Exercise&Recreation	Sports, Exercise, and Recreation	Participating in Sports, Exercise, or Recreation	Doing aerobics	230	1	True	True	True	True	0.3160583754315667
video_on	action	1	meg	1	rAfi7dTiB6k	Blow-drying hair	Grooming	Personal Care	Grooming	Washing, dressing and grooming oneself	281	4	True	False	False	True	0.6039282215842832
video_on	action	1	meg	1	o2mjBRD7tts	Snatch	Participating_in_sports&Exercise&Recreation	Sports, Exercise, and Recreation	Participating in Sports, Exercise, or Recreation	Weightlifting	79	1	True	True	True	True	0.4574052244470294
video_on	action	1	meg	1	57_VZR4m3BA	Baking cookies	Food&Drink_prep.&Presentation&Clean-up	Eating and drinking Activities	Food & Drink Prep., Presentation, & Clean-up	Food and drink preparation	276	5	True	False	False	True	0.3941739278743625
video_on	action	1	meg	1	VMq8Yis-Bz8	Playing congas	Arts&Entertainment	Socializing, Relaxing, and Leisure	Arts and Entertainment	Playing musical instruments	345	2	True	False	False	True	0.0051151705783922
video_on	action	1	meg	1	ch852kF3jBo	High jump	Participating_in_sports&Exercise&Recreation	Sports, Exercise, and Recreation	Participating in Sports, Exercise, or Recreation	Playing sports	195	1	True	True	True	True	0.426436783344343
video_on	action	1	meg	1	tfaEtb44IrM	Zumba	Participating_in_sports&Exercise&Recreation	Sports, Exercise, and Recreation	Participating in Sports, Exercise, or Recreation	Doing aerobics	69	1	True	True	True	True	0.3648561065838294
video_on	action	1	meg	1	nvxuReK5nJw	Beer pong	Relaxing&Leisure	Socializing, Relaxing, and Leisure	Relaxing and Leisure	Playing games	280	3	True	False	False	True	0.4188604746286728
video_on	action	1	meg	1	dgxIRhtYJUo	Spinning	Participating_in_sports&Exercise&Recreation	Sports, Exercise, and Recreation	Participating in Sports, Exercise, or Recreation	Using cardiovascular equipment	117	1	True	True	True	True	0.6209451820950562
video_on	action	1	meg	1	H_aFXRzO5DU	Arm wrestling	Participating_in_sports&Exercise&Recreation	Sports, Exercise, and Recreation	Participating in Sports, Exercise, or Recreation	Wrestling	271	1	True	True	True	True	0.4113267294451361
video_on	action	1	meg	1	71GB28EKisU	Rafting	Participating_in_sports&Exercise&Recreation	Sports, Exercise, and Recreation	Participating in Sports, Exercise, or Recreation	Boating	353	1	True	True	True	True	0.349428486474153
video_on	action	1	meg	1	KlRPPDSg80E	Playing harmonica	Arts&Entertainment	Socializing, Relaxing, and Leisure	Arts and Entertainment	Playing musical instruments	100	2	True	False	False	True	0.8661781419659746
video_on	action	1	meg	1	VLZdtGbTo8w	Cleaning shoes	Housework	Household Activities	Housework	Sewing, repairing, & maintaining textiles	134	6	True	False	False	True	0.3553756080773382
video_on	action	1	meg	1	FyTZaBtFYog	Preparing pasta	Food&Drink_prep.&Presentation&Clean-up	Eating and drinking Activities	Food & Drink Prep., Presentation, & Clean-up	Food and drink preparation	186	5	True	False	False	True	0.5637437192376638
video_on	action	1	meg	1	iT5OfcJ47jM	Painting	Interior_maintenance&Repair&Decoration	Household Activities	Interior Maintenance, Repair, & Decoration	Interior arrangement, decoration, & repairs	217	7	True	False	False	True	0.3880462885958877
video_on	action	1	meg	1	OCKQY18P9mQ	Javelin throw	Participating_in_sports&Exercise&Recreation	Sports, Exercise, and Recreation	Participating in Sports, Exercise, or Recreation	Playing sports	116	1	True	True	True	True	0.3959667279964378
video_on	action	1	meg	1	RJYjti2trA8	Playing saxophone	Arts&Entertainment	Socializing, Relaxing, and Leisure	Arts and Entertainment	Playing musical instruments	109	2	True	False	False	True	0.5024295928237734
video_on	action	1	meg	1	UMw77WIPQ3w	Bathing dog	Animals&Pets	Household Activities	Animals and Pets	Care for animals and pets (not veterinary care)	90	8	True	False	False	True	0.3252602488305456
video_on	action	1	meg	1	tMbGC0ruO2Y	Walking the dog	Animals&Pets	Household Activities	Animals and Pets	Walking / exercising / playing with animals	221	8	True	False	False	True	0.5005260067709969
video_on	action	1	meg	1	84vVQwMrKFw	Hammer throw	Participating_in_sports&Exercise&Recreation	Sports, Exercise, and Recreation	Participating in Sports, Exercise, or Recreation	Playing sports	224	1	True	True	True	True	0.3247914462394874
video_on	action	1	meg	1	3mmeIAa19ZM	Playing field hockey	Participating_in_sports&Exercise&Recreation	Sports, Exercise, and Recreation	Participating in Sports, Exercise, or Recreation	Playing hockey	94	1	True	True	True	True	0.0053793059728377
video_on	action	1	meg	1	K4ZIgiDxZv4	Playing rubik cube	Relaxing&Leisure	Socializing, Relaxing, and Leisure	Relaxing and Leisure	Playing games	349	3	True	False	False	True	0.5089137394174941
video_on	action	1	meg	1	B8_xqZ3bT6o	Painting fence	Exterior_maintenance&Repair&Decoration	Household Activities	Exterior Maintenance, Repair, & Decoration	Painting fence	336	12	True	False	True	False	0.3812183131863094
video_on	action	1	meg	1	HzjMJeivwdA	BMX	Participating_in_sports&Exercise&Recreation	Sports, Exercise, and Recreation	Participating in Sports, Exercise, or Recreation	Biking	274	1	False	True	False	False	0.0
video_on	action	1	eeg	1	AemuEniaIDo	Surfing	Participating_in_sports&Exercise&Recreation	Sports, Exercise, and Recreation	Participating in Sports, Exercise, or Recreation	Participating in water sports	376	1	False	True	False	False	0.0
video_on	action	1	eeg	1	SBV_Q0bV4NU	Cricket	Participating_in_sports&Exercise&Recreation	Sports, Exercise, and Recreation	Participating in Sports, Exercise, or Recreation	Playing sports	82	1	True	True	False	False	0.0050699999846983
video_on	action	1	eeg	1	tpUF-ahMM_A	Carving jack-o-lanterns	Interior_maintenance&Repair&Decoration	Household Activities	Interior Maintenance, Repair, & Decoration	Interior arrangement, decoration, & repairs	295	7	True	False	False	True	0.8197612999938428
video_on	action	1	eeg	1	D5j4622o8Wo	Belly dance	Arts&Entertainment	Socializing, Relaxing, and Leisure	Arts and Entertainment	Dancing	247	2	True	False	True	False	0.9786326000175904
video_on	action	1	eeg	1	hpHjMf7q7o4	Ballet	Arts&Entertainment	Socializing, Relaxing, and Leisure	Arts and Entertainment	Attending arts and entertainment	229	2	True	False	False	True	1.074562199995853
video_on	action	1	eeg	1	5OMUM9Y3V1o	Archery	Participating_in_sports&Exercise&Recreation	Sports, Exercise, and Recreation	Participating in Sports, Exercise, or Recreation	Playing sports	250	1	True	True	True	True	0.7380659999907948
video_on	action	1	eeg	1	LYdJ7nV-mMU	Baking cookies	Food&Drink_prep.&Presentation&Clean-up	Eating and drinking Activities	Food & Drink Prep., Presentation, & Clean-up	Food and drink preparation	276	5	True	False	False	True	0.8835093000088818
video_on	action	1	eeg	1	Yi1ES4IOctE	Playing bagpipes	Arts&Entertainment	Socializing, Relaxing, and Leisure	Arts and Entertainment	Playing musical instruments	136	2	True	False	False	True	0.7356827999756206
video_on	action	1	eeg	1	qp0yoEJuvI0	Slacklining	Relaxing&Leisure	Socializing, Relaxing, and Leisure	Relaxing and Leisure	Playing games	371	3	True	False	False	True	0.8724225000187289
video_on	action	1	eeg	1	eZPCOiLsiLs	Mowing the lawn	Lawn&Garden&Houseplants	Household Activities	Lawn, Garden, and Houseplants	Lawn, garden, and houseplant care	218	9	True	False	False	True	0.6718020999978762
video_on	action	1	eeg	1	WXSv2n12TTo	Waxing skis	Appliances&Tools&Toys	Household Activities	Appliances, Tools, and Toys	Appliance, tool, and toy set-up, repair, & maintenance (by self)	387	10	True	False	False	True	0.6115096000139602
video_on	action	1	eeg	1	YeA5J__6FUU	Beer pong	Relaxing&Leisure	Socializing, Relaxing, and Leisure	Relaxing and Leisure	Playing games	280	3	True	False	False	True	0.8428762000112329
video_on	action	1	eeg	1	U-ydFtGuoM0	Playing beach volleyball	Participating_in_sports&Exercise&Recreation	Sports, Exercise, and Recreation	Participating in Sports, Exercise, or Recreation	Playing volleyball	341	1	True	True	True	True	0.6409364999854006
video_on	action	1	eeg	1	AtPb2t-6S2o	Paintball	Participating_in_sports&Exercise&Recreation	Sports, Exercise, and Recreation	Participating in Sports, Exercise, or Recreation	Playing sports	141	1	True	True	False	False	0.9737556999898516
video_on	action	1	eeg	1	poBqJ2pGHdY	Fixing the roof	Exterior_maintenance&Repair&Decoration	Household Activities	Exterior Maintenance, Repair, & Decoration	Exterior repair, improvements, & decoration	311	12	True	False	False	True	0.8001285000063945
video_on	action	1	eeg	1	pL1KQzsQoM8	Canoeing	Participating_in_sports&Exercise&Recreation	Sports, Exercise, and Recreation	Participating in Sports, Exercise, or Recreation	Boating	292	1	True	True	True	True	0.841167000005953
video_on	action	1	eeg	1	rnpPxMIOCjU	Camel ride	Participating_in_sports&Exercise&Recreation	Sports, Exercise, and Recreation	Participating in Sports, Exercise, or Recreation	Playing sports	291	1	False	True	False	False	0.0
video_on	action	1	eeg	1	OhQRQxre5Hk	Snowboarding	Participating_in_sports&Exercise&Recreation	Sports, Exercise, and Recreation	Participating in Sports, Exercise, or Recreation	Skiing, ice skating, snowboarding	373	1	True	True	False	False	0.0050780000165104
video_on	action	1	eeg	1	OcKOKlBtjaQ	Throwing darts	Relaxing&Leisure	Socializing, Relaxing, and Leisure	Relaxing and Leisure	Playing games	380	3	True	False	False	True	0.9208121999981812
video_on	action	1	eeg	1	JF1PQVMIqV8	Running a marathon	Participating_in_sports&Exercise&Recreation	Sports, Exercise, and Recreation	Participating in Sports, Exercise, or Recreation	Running	362	1	True	True	True	True	0.7491395000251941
video_on	action	1	eeg	1	eYJTRuNduyQ	Playing badminton	Participating_in_sports&Exercise&Recreation	Sports, Exercise, and Recreation	Participating in Sports, Exercise, or Recreation	Playing racquet sports	268	1	True	True	True	True	0.8392376000119839
video_on	action	1	eeg	1	_83uCWnTNCg	Discus throw	Participating_in_sports&Exercise&Recreation	Sports, Exercise, and Recreation	Participating in Sports, Exercise, or Recreation	Playing sports	92	1	True	True	True	True	0.7813435000134632
video_on	action	1	eeg	1	-4sksQX_MU0	Using the pommel horse	Participating_in_sports&Exercise&Recreation	Sports, Exercise, and Recreation	Participating in Sports, Exercise, or Recreation	Doing gymnastics	114	1	True	True	True	True	0.9225557000027038
video_on	action	1	eeg	1	9ZzjpXGhKIs	Swimming	Participating_in_sports&Exercise&Recreation	Sports, Exercise, and Recreation	Participating in Sports, Exercise, or Recreation	Participating in water sports	377	1	True	True	True	True	0.9416704999748616
video_on	action	1	eeg	1	DKVZopJHkbo	Preparing salad	Food&Drink_prep.&Presentation&Clean-up	Eating and drinking Activities	Food & Drink Prep., Presentation, & Clean-up	Food and drink preparation	96	5	True	False	False	True	0.8426168999867514
video_on	action	1	eeg	1	b0gXx87MK_I	Rock climbing	Participating_in_sports&Exercise&Recreation	Sports, Exercise, and Recreation	Participating in Sports, Exercise, or Recreation	Climbing, spelunking, caving	188	1	True	True	True	True	0.7141683000081684
video_on	action	1	eeg	1	H5LrM6NO3xw	Getting a piercing	Grooming	Personal Care	Grooming	Washing, dressing and grooming	214	4	True	False	False	True	0.9881633000040893
video_on	action	1	eeg	1	969kylY3yf4	Washing dishes	Food&Drink_prep.&Presentation&Clean-up	Eating and drinking Activities	Food & Drink Prep., Presentation, & Clean-up	Kitchen and food clean-up	213	5	True	False	False	True	0.8923204000166152
video_on	action	1	eeg	1	FNGn5jKj-7o	Riding bumper cars	Relaxing&Leisure	Socializing, Relaxing, and Leisure	Relaxing and Leisure	Playing games	356	3	True	False	False	True	0.9745236999879126
video_on	action	1	eeg	1	M4rW_wDaJ9c	Drinking coffee	Food&Drink_prep.&Presentation&Clean-up	Eating and drinking Activities	Food & Drink Prep., Presentation, & Clean-up	Eating and Drinking	68	5	True	False	False	True	0.8471386999881361
video_on	action	1	eeg	1	d70XYI0fJKA	Long jump	Participating_in_sports&Exercise&Recreation	Sports, Exercise, and Recreation	Participating in Sports, Exercise, or Recreation	Playing sports	80	1	True	True	True	True	0.6715099999855738
video_on	action	1	eeg	1	6SFW4g4UVKI	Polishing shoes	Housework	Household Activities	Housework	Sewing, repairing, & maintaining textiles	227	6	True	False	False	True	0.980634600011399
video_on	action	1	eeg	1	7F10Dho_Dh8	Elliptical trainer	Participating_in_sports&Exercise&Recreation	Sports, Exercise, and Recreation	Participating in Sports, Exercise, or Recreation	Using cardiovascular equipment	308	1	True	True	True	True	0.7556049999839161
video_on	action	1	eeg	1	xTlyQfkfOws	Playing piano	Arts&Entertainment	Socializing, Relaxing, and Leisure	Arts and Entertainment	Playing musical instruments	197	2	True	False	False	True	0.9306901000090876
video_on	action	1	eeg	1	eJp1haAHbRM	Snow tubing	Participating_in_sports&Exercise&Recreation	Sports, Exercise, and Recreation	Participating in Sports, Exercise, or Recreation	Skiing, ice skating, snowboarding	372	1	True	True	False	False	1.0272865000006275
video_on	action	1	eeg	1	6gUBhrsUTyY	Ping-pong	Participating_in_sports&Exercise&Recreation	Sports, Exercise, and Recreation	Participating in Sports, Exercise, or Recreation	Playing racquet sports	119	1	True	True	True	True	0.3853652999969199
video_on	action	1	eeg	1	gasGr6bNcOU	Braiding hair	Grooming	Personal Care	Grooming	Washing, dressing and grooming oneself	285	4	False	False	False	True	0.0
video_on	action	1	eeg	1	pfraOjRK3Xs	Croquet	Participating_in_sports&Exercise&Recreation	Sports, Exercise, and Recreation	Participating in Sports, Exercise, or Recreation	Playing sports	299	1	True	True	False	False	0.0050897999899461
video_on	action	1	eeg	1	G3UEA-lpYzk	Waterskiing	Participating_in_sports&Exercise&Recreation	Sports, Exercise, and Recreation	Participating in Sports, Exercise, or Recreation	Participating in water sports	386	1	True	True	True	True	0.9359480999992228
video_on	action	1	eeg	1	q8P3yXhDQRw	Doing crunches	Participating_in_sports&Exercise&Recreation	Sports, Exercise, and Recreation	Participating in Sports, Exercise, or Recreation	Working out	305	1	True	True	True	True	1.148884399997769
video_on	action	1	eeg	1	S480v-0vHE0	Playing drums	Arts&Entertainment	Socializing, Relaxing, and Leisure	Arts and Entertainment	Playing musical instruments	346	2	True	False	False	True	0.8779501999961212
video_on	action	1	eeg	1	Y4Idmf0SGS4	Skiing	Participating_in_sports&Exercise&Recreation	Sports, Exercise, and Recreation	Participating in Sports, Exercise, or Recreation	Skiing, ice skating, snowboarding	369	1	True	True	True	True	0.7591045000008307
video_on	action	1	eeg	1	HGat8bpLo2E	Kayaking	Participating_in_sports&Exercise&Recreation	Sports, Exercise, and Recreation	Participating in Sports, Exercise, or Recreation	Participating in water sports	254	1	True	True	True	True	0.749843099998543
video_on	action	1	eeg	1	4gphDr5u6MQ	Smoking a cigarette	Relaxing&Leisure	Socializing, Relaxing, and Leisure	Relaxing and Leisure	Tobacco and drug use	201	3	True	False	False	True	0.7320504000235815
video_on	action	1	eeg	1	guic9QfPBHg	Calf roping	Participating_in_sports&Exercise&Recreation	Sports, Exercise, and Recreation	Participating in Sports, Exercise, or Recreation	Participating in rodeo competitions	290	1	True	True	False	False	1.2407982000149786
video_on	action	1	eeg	1	2EvXHkN_4ZU	Using uneven bars	Participating_in_sports&Exercise&Recreation	Sports, Exercise, and Recreation	Participating in Sports, Exercise, or Recreation	Doing gymnastics	192	1	True	True	True	True	0.8036283999972511
video_on	action	1	eeg	1	a3WVCE3fsSc	Playing accordion	Arts&Entertainment	Socializing, Relaxing, and Leisure	Arts and Entertainment	Playing musical instruments	267	2	True	False	False	True	0.7752964000101201
video_on	action	1	eeg	1	rs5ywMymSbk	Ice fishing	Participating_in_sports&Exercise&Recreation	Sports, Exercise, and Recreation	Participating in Sports, Exercise, or Recreation	Fishing	324	1	True	True	False	False	0.940216099988902
video_on	action	1	eeg	1	nHweZvioReo	Sharpening knives	Appliances&Tools&Toys	Household Activities	Appliances, Tools, and Toys	Appliance, tool, and toy set-up, repair, & maintenance (by self)	365	10	True	False	False	True	0.9590421000029892
video_on	action	1	eeg	1	_21qk3fflsA	Volleyball	Participating_in_sports&Exercise&Recreation	Sports, Exercise, and Recreation	Participating in Sports, Exercise, or Recreation	Playing volleyball	123	1	True	True	True	True	0.7986948000034317
video_on	action	1	eeg	1	J8iorA7_Mag	Bungee jumping	Participating_in_sports&Exercise&Recreation	Sports, Exercise, and Recreation	Participating in Sports, Exercise, or Recreation	Playing sports	154	1	True	True	False	False	0.9774107999983244
video_on	action	1	eeg	1	3VXIj2yMnTk	Painting furniture	Interior_maintenance&Repair&Decoration	Household Activities	Interior Maintenance, Repair, & Decoration	Building and repairing furniture	337	7	False	False	False	True	0.0
video_on	action	1	eeg	1	zGIONM75CCU	Tai chi	Participating_in_sports&Exercise&Recreation	Sports, Exercise, and Recreation	Participating in Sports, Exercise, or Recreation	Participating in martial arts	263	1	True	True	False	False	0.0050802000041585
video_on	action	1	eeg	1	wo3hIpXKb6U	Disc dog	Animals&Pets	Household Activities	Animals and Pets	Walking / exercising / playing with animals	303	8	False	False	False	True	0.0
video_on	action	1	eeg	1	Yb28gpswRss	Playing ice hockey	Participating_in_sports&Exercise&Recreation	Sports, Exercise, and Recreation	Participating in Sports, Exercise, or Recreation	Playing hockey	347	1	True	True	False	False	0.0050691000069491
video_on	action	1	eeg	1	M3Y5Fw_e-cU	Spinning	Participating_in_sports&Exercise&Recreation	Sports, Exercise, and Recreation	Participating in Sports, Exercise, or Recreation	Using cardiovascular equipment	117	1	True	True	True	True	0.8190780000004452
video_on	action	1	eeg	1	ws-cBPkve3U	BMX	Participating_in_sports&Exercise&Recreation	Sports, Exercise, and Recreation	Participating in Sports, Exercise, or Recreation	Biking	274	1	True	True	True	True	0.8632715999847278
video_on	action	1	eeg	1	vEd3c01zm5A	Putting in contact lenses	Grooming	Personal Care	Grooming	Washing, dressing and grooming oneself	351	4	True	False	False	True	0.6909509999968577
video_on	action	1	eeg	1	elQL7nso9Ig	Dodgeball	Participating_in_sports&Exercise&Recreation	Sports, Exercise, and Recreation	Participating in Sports, Exercise, or Recreation	Playing sports	161	1	True	True	True	True	0.8728362999972887
video_on	action	1	eeg	1	MzxOxlQFeI8	Playing squash	Participating_in_sports&Exercise&Recreation	Sports, Exercise, and Recreation	Participating in Sports, Exercise, or Recreation	Playing racquet sports	194	1	True	True	True	True	0.8123131000029389
video_on	action	1	eeg	1	WV-A4JvsJvo	Playing harmonica	Arts&Entertainment	Socializing, Relaxing, and Leisure	Arts and Entertainment	Playing musical instruments	100	2	True	False	False	True	0.8473381999938283
video_on	action	1	eeg	1	1psjiH9ICx4	Drum corps	Arts&Entertainment	Socializing, Relaxing, and Leisure	Arts and Entertainment	Playing musical instruments	307	2	True	False	False	True	0.9260417000041344
video_on	action	1	eeg	1	GZ2b8LPeoYk	Tug of war	Relaxing&Leisure	Socializing, Relaxing, and Leisure	Relaxing and Leisure	Playing games	382	3	True	False	True	False	0.977199600019958
video_on	action	1	eeg	1	gLescfORbmw	Mooping floor	Housework	Household Activities	Housework	Interior cleaning	335	6	True	False	False	True	0.7416636999987531
video_on	action	1	eeg	1	P9WrIAL-BHg	Walking the dog	Animals&Pets	Household Activities	Animals and Pets	Walking / exercising / playing with animals	221	8	True	False	False	True	0.97244480001973
video_on	action	1	eeg	1	GHbvtjSyAZY	Powerbocking	Participating_in_sports&Exercise&Recreation	Sports, Exercise, and Recreation	Participating in Sports, Exercise, or Recreation	Playing sports	350	1	False	True	False	False	0.0
video_on	action	1	eeg	1	uyGPbXjOif0	Doing karate	Participating_in_sports&Exercise&Recreation	Sports, Exercise, and Recreation	Participating in Sports, Exercise, or Recreation	Participating in martial arts	99	1	True	True	True	True	0.0050694999808911
video_on	action	1	eeg	1	0dadrUrRSrQ	Tango	Arts&Entertainment	Socializing, Relaxing, and Leisure	Arts and Entertainment	Dancing	73	2	True	False	False	True	0.0050700000138022
video_on	action	1	eeg	1	wXCDeqjWuDg	Scuba diving	Participating_in_sports&Exercise&Recreation	Sports, Exercise, and Recreation	Participating in Sports, Exercise, or Recreation	Participating in water sports	364	1	True	True	False	False	0.0050709000206552
video_on	action	1	eeg	1	gv4yUAjPLSM	Spread mulch	Lawn&Garden&Houseplants	Household Activities	Lawn, Garden, and Houseplants	Lawn, garden, and houseplant care	374	9	True	False	False	True	0.0050702999869827
video_on	action	1	eeg	1	SmgsyScQBso	Hitting a pinata	Relaxing&Leisure	Socializing, Relaxing, and Leisure	Relaxing and Leisure	Playing games	321	3	True	False	False	True	0.0050859999901149
video_on	action	1	eeg	1	VGXNuaYloPw	Preparing pasta	Food&Drink_prep.&Presentation&Clean-up	Eating and drinking Activities	Food & Drink Prep., Presentation, & Clean-up	Food and drink preparation	186	5	True	False	False	True	0.0050724000029731
video_on	action	1	eeg	1	cnk0V_GndqQ	Javelin throw	Participating_in_sports&Exercise&Recreation	Sports, Exercise, and Recreation	Participating in Sports, Exercise, or Recreation	Playing sports	116	1	True	True	True	True	0.0050704999885056
video_on	action	1	eeg	1	DIXhtqHRFzI	Shuffleboard	Relaxing&Leisure	Socializing, Relaxing, and Leisure	Relaxing and Leisure	Playing games	368	3	True	False	False	True	0.0050703999877441
video_on	action	1	eeg	1	dQtwjj9KbFE	Sumo	Participating_in_sports&Exercise&Recreation	Sports, Exercise, and Recreation	Participating in Sports, Exercise, or Recreation	Wrestling	375	1	True	True	True	True	0.0050697999831754
video_on	action	1	eeg	1	z-aAi0bevgM	Cleaning shoes	Housework	Household Activities	Housework	Sewing, repairing, & maintaining textiles	134	6	True	False	False	True	0.0050696000107564
video_on	action	1	eeg	1	D0uSTtDWbI8	Fixing bicycle	Vehicles	Household Activities	Vehicles	Vehicle repair and maintenance (by self)	171	11	True	False	False	True	0.0050862000207416
video_on	action	1	eeg	1	JHOJVGLRStQ	Playing pool	Relaxing&Leisure	Socializing, Relaxing, and Leisure	Relaxing and Leisure	Playing games	348	3	True	False	False	True	0.3266703000117559
video_on	action	1	eeg	1	5ZvUwGbfBIg	Triple jump	Participating_in_sports&Exercise&Recreation	Sports, Exercise, and Recreation	Participating in Sports, Exercise, or Recreation	Playing sports	155	1	True	True	True	True	0.0050706000183708
video_on	action	1	eeg	1	I10rjEjNYCU	Building sandcastles	Arts&Entertainment	Socializing, Relaxing, and Leisure	Arts and Entertainment	Beach activities	286	2	True	False	False	True	0.0050668000185396
video_on	action	1	eeg	1	l1qGVZAkRYQ	Using the monkey bar	Arts&Entertainment	Socializing, Relaxing, and Leisure	Arts and Entertainment	Park activities	383	2	True	False	True	False	0.0050704999885056
video_on	action	1	eeg	1	3xjMpklXFy0	Cheerleading	Arts&Entertainment	Socializing, Relaxing, and Leisure	Arts and Entertainment	Dancing	140	2	True	False	False	True	0.0050683000008575
video_on	action	1	eeg	1	5ONluqU3biI	Putting on makeup	Grooming	Personal Care	Grooming	Washing, dressing and grooming oneself	76	4	True	False	False	True	0.0050708000198937
video_on	action	1	eeg	1	3z2wElE_H5A	Horseback riding	Participating_in_sports&Exercise&Recreation	Sports, Exercise, and Recreation	Participating in Sports, Exercise, or Recreation	Participating in equestrian sports	175	1	True	True	False	False	0.0050674999947659
video_on	action	1	eeg	1	uZu--Zy2H74	Playing violin	Arts&Entertainment	Socializing, Relaxing, and Leisure	Arts and Entertainment	Playing musical instruments	234	2	True	False	False	True	0.0050677999970503
video_on	action	1	eeg	1	0ReyvJ7vjSc	Hand washing clothes	Housework	Household Activities	Housework	Laundry	232	6	True	False	False	True	0.0050700999854598
video_on	action	1	eeg	1	K31GI2txcf4	Hammer throw	Participating_in_sports&Exercise&Recreation	Sports, Exercise, and Recreation	Participating in Sports, Exercise, or Recreation	Playing sports	224	1	True	True	True	True	0.0050709000206552
video_on	action	1	eeg	1	vwZbhRPJIuw	Using the rowing machine	Participating_in_sports&Exercise&Recreation	Sports, Exercise, and Recreation	Participating in Sports, Exercise, or Recreation	Using cardiovascular equipment	384	1	True	True	True	True	0.0050713999953586
video_on	action	1	eeg	1	V8HzrRcTW1o	Hand car wash	Vehicles	Household Activities	Vehicles	Vehicle repair and maintenance (by self)	318	11	True	False	False	True	0.3502711000037379
video_on	action	1	eeg	1	29_myBjQMOc	Wakeboarding	Participating_in_sports&Exercise&Recreation	Sports, Exercise, and Recreation	Participating in Sports, Exercise, or Recreation	Participating in water sports	385	1	True	True	True	True	0.0050691000069491
video_on	action	1	meg	2	LMSO6nBkAao	Doing karate	Participating_in_sports&Exercise&Recreation	Sports, Exercise, and Recreation	Participating in Sports, Exercise, or Recreation	Participating in martial arts	99	1	True	True	True	True	0.3351023864256603
video_on	action	1	meg	2	e4RA2CJ6czU	Mixing drinks	Food&Drink_prep.&Presentation&Clean-up	Eating and drinking Activities	Food & Drink Prep., Presentation, & Clean-up	Food and drink preparation	244	5	True	False	False	True	0.5831952534113043
video_on	action	1	meg	2	Foyc7kkihss	Windsurfing	Participating_in_sports&Exercise&Recreation	Sports, Exercise, and Recreation	Participating in Sports, Exercise, or Recreation	Participating in water sports	237	1	True	True	True	True	0.3448201539831643
video_on	action	1	meg	2	VvvTs7oh6Ow	Surfing	Participating_in_sports&Exercise&Recreation	Sports, Exercise, and Recreation	Participating in Sports, Exercise, or Recreation	Participating in water sports	376	1	True	True	True	True	0.3135863700099435
video_on	action	1	meg	2	bKsEI7rHkrs	Vacuuming floor	Housework	Household Activities	Housework	Interior cleaning	160	6	True	False	False	True	0.3434762330971352
video_on	action	1	meg	2	FKcngDuoJWg	Knitting	Housework	Household Activities	Housework	Sewing, repairing, & maintaining textiles	329	6	True	False	False	True	0.5678304220582504
video_on	action	1	meg	2	thkhlZFoUzE	Rope skipping	Participating_in_sports&Exercise&Recreation	Sports, Exercise, and Recreation	Participating in Sports, Exercise, or Recreation	Working out	361	1	True	True	True	True	0.3267206911591529
video_on	action	1	meg	2	OFF7dkH2qOE	Plastering	Interior_maintenance&Repair&Decoration	Household Activities	Interior Maintenance, Repair, & Decoration	Interior arrangement, decoration, & repairs	340	7	True	False	False	True	0.5601037825699677
video_on	action	1	meg	2	HFydtU1K68U	Painting furniture	Interior_maintenance&Repair&Decoration	Household Activities	Interior Maintenance, Repair, & Decoration	Building and repairing furniture	337	7	True	False	False	True	0.5763778434179585
video_on	action	1	meg	2	hBOx7SS-O6o	Powerbocking	Participating_in_sports&Exercise&Recreation	Sports, Exercise, and Recreation	Participating in Sports, Exercise, or Recreation	Playing sports	350	1	True	True	False	False	0.5844757818031212
video_on	action	1	meg	2	v7JlF6Ls2W8	Braiding hair	Grooming	Personal Care	Grooming	Washing, dressing and grooming oneself	285	4	True	False	False	True	0.3140847557651796
video_on	action	1	meg	2	5ht4nJiSvcE	Using the monkey bar	Arts&Entertainment	Socializing, Relaxing, and Leisure	Arts and Entertainment	Park activities	383	2	True	False	True	False	0.407497822769983
video_on	action	1	meg	2	5cM--SL-8xU	Cleaning sink	Interior_maintenance&Repair&Decoration	Household Activities	Interior Maintenance, Repair, & Decoration	Interior arrangement, decoration, & repairs	297	7	True	False	False	True	0.3275490197561339
video_on	action	1	meg	2	PrRPWyD7q8o	Clean and jerk	Participating_in_sports&Exercise&Recreation	Sports, Exercise, and Recreation	Participating in Sports, Exercise, or Recreation	Weightlifting	84	1	True	True	True	True	0.5542701637186838
video_on	action	1	meg	2	zPQp-Re-PlA	Ballet	Arts&Entertainment	Socializing, Relaxing, and Leisure	Arts and Entertainment	Attending arts and entertainment	229	2	True	False	False	True	0.3362817886945777
video_on	action	1	meg	2	jni8pQK1EoA	Rock climbing	Participating_in_sports&Exercise&Recreation	Sports, Exercise, and Recreation	Participating in Sports, Exercise, or Recreation	Climbing, spelunking, caving	188	1	True	True	False	False	0.3686557319647363
video_on	action	1	meg	2	SnhfnJvu2vc	Sumo	Participating_in_sports&Exercise&Recreation	Sports, Exercise, and Recreation	Participating in Sports, Exercise, or Recreation	Wrestling	375	1	True	True	True	True	0.2967152122369043
video_on	action	1	meg	2	uVUyACDTZy8	Playing violin	Arts&Entertainment	Socializing, Relaxing, and Leisure	Arts and Entertainment	Playing musical instruments	234	2	True	False	False	True	0.3298166598492571
video_on	action	1	meg	2	UAsISmdRqjc	Trimming branches or hedges	Lawn&Garden&Houseplants	Household Activities	Lawn, Garden, and Houseplants	Lawn, garden, and houseplant care	381	9	True	False	False	True	0.4899002171946449
video_on	action	1	meg	2	sDMhbcOGSkk	Playing pool	Relaxing&Leisure	Socializing, Relaxing, and Leisure	Relaxing and Leisure	Playing games	348	3	True	False	True	False	0.5940329550412571
video_on	action	1	meg	2	c1Oq_qxXXEU	Mowing the lawn	Lawn&Garden&Houseplants	Household Activities	Lawn, Garden, and Houseplants	Lawn, garden, and houseplant care	218	9	True	False	False	True	0.6262870563091383
video_on	action	1	meg	2	Ux0taT28gcA	Table soccer	Relaxing&Leisure	Socializing, Relaxing, and Leisure	Relaxing and Leisure	Playing games	379	3	True	False	True	False	0.3135145251826543
video_on	action	1	meg	2	XhwHasY98Oo	Shot put	Participating_in_sports&Exercise&Recreation	Sports, Exercise, and Recreation	Participating in Sports, Exercise, or Recreation	Playing sports	169	1	True	True	True	True	0.4343834853498265
video_on	action	1	meg	2	wXAM1a3JCLI	Grooming horse	Animals&Pets	Household Activities	Animals and Pets	Walking / exercising / playing with animals	95	8	True	False	False	True	0.6039273159772165
video_on	action	1	meg	2	99YjGtMnLqY	Doing kickboxing	Participating_in_sports&Exercise&Recreation	Sports, Exercise, and Recreation	Participating in Sports, Exercise, or Recreation	Participating in martial arts	70	1	True	True	True	True	0.330779622029695
video_on	action	1	meg	2	Z4k3A2QE8xo	Preparing salad	Food&Drink_prep.&Presentation&Clean-up	Eating and drinking Activities	Food & Drink Prep., Presentation, & Clean-up	Food and drink preparation	96	5	True	False	False	True	0.347799601231145
video_on	action	1	meg	2	HBzk1UacQ_c	Futsal	Participating_in_sports&Exercise&Recreation	Sports, Exercise, and Recreation	Participating in Sports, Exercise, or Recreation	Playing soccer	315	1	True	True	True	True	0.3630584765578533
video_on	action	1	meg	2	ygn3529r1eo	Elliptical trainer	Participating_in_sports&Exercise&Recreation	Sports, Exercise, and Recreation	Participating in Sports, Exercise, or Recreation	Using cardiovascular equipment	308	1	True	True	True	True	0.4025978848039813
video_on	action	1	meg	2	0msNvIMDCFY	Putting on shoes	Grooming	Personal Care	Grooming	Washing, dressing and grooming oneself	352	4	True	False	False	True	0.5387655670078857
video_on	action	1	meg	2	ZCxLjPt0Ozw	Rollerblading	Participating_in_sports&Exercise&Recreation	Sports, Exercise, and Recreation	Participating in Sports, Exercise, or Recreation	Playing sports	359	1	True	True	True	True	0.4208313774734051
video_on	action	1	meg	2	EW4pXRCBZ20	Belly dance	Arts&Entertainment	Socializing, Relaxing, and Leisure	Arts and Entertainment	Dancing	247	2	True	False	False	True	0.3145526527496258
video_on	action	1	meg	2	cQpUR5FU1YM	Laying tile	Interior_maintenance&Repair&Decoration	Household Activities	Interior Maintenance, Repair, & Decoration	Interior arrangement, decoration, & repairs	330	7	True	False	False	True	0.3631417924075322
video_on	action	1	meg	2	mgLZXrCREao	Using the rowing machine	Participating_in_sports&Exercise&Recreation	Sports, Exercise, and Recreation	Participating in Sports, Exercise, or Recreation	Using cardiovascular equipment	384	1	True	True	True	True	0.3401282037734745
video_on	action	1	meg	2	PWRrgOdnxmE	Slacklining	Relaxing&Leisure	Socializing, Relaxing, and Leisure	Relaxing and Leisure	Playing games	371	3	True	False	True	False	0.3156363625389531
video_on	action	1	meg	2	PFRO-_LUDqY	Disc dog	Animals&Pets	Household Activities	Animals and Pets	Walking / exercising / playing with animals	303	8	True	False	False	True	0.4029767304264169
video_on	action	1	meg	2	ORo2JGPbOdc	Putting on makeup	Grooming	Personal Care	Grooming	Washing, dressing and grooming oneself	76	4	True	False	False	True	0.5085901358256706
video_on	action	1	meg	2	JTeiZoEya5Q	Grooming dog	Animals&Pets	Household Activities	Animals and Pets	Care for animals and pets (not veterinary care)	317	8	True	False	False	True	0.3886168210474352
video_on	action	1	meg	2	Kf8FLInqyLU	Volleyball	Participating_in_sports&Exercise&Recreation	Sports, Exercise, and Recreation	Participating in Sports, Exercise, or Recreation	Playing volleyball	123	1	True	True	True	True	0.2923698076642722
video_on	action	1	meg	2	_dPFc_S7Dc0	Swinging at the playground	Arts&Entertainment	Socializing, Relaxing, and Leisure	Arts and Entertainment	Park activities	378	2	True	False	False	True	0.3168927414085374
video_on	action	1	meg	2	L1hCXn6oN_8	Sharpening knives	Appliances&Tools&Toys	Household Activities	Appliances, Tools, and Toys	Appliance, tool, and toy set-up, repair, & maintenance (by self)	365	10	True	False	False	True	0.7831753300561104
video_on	action	1	meg	2	etRzep6wmtc	Tai chi	Participating_in_sports&Exercise&Recreation	Sports, Exercise, and Recreation	Participating in Sports, Exercise, or Recreation	Participating in martial arts	263	1	True	True	True	True	0.460570623012245
video_on	action	1	meg	2	czL6dkrjDxA	Camel ride	Participating_in_sports&Exercise&Recreation	Sports, Exercise, and Recreation	Participating in Sports, Exercise, or Recreation	Playing sports	291	1	True	True	False	False	0.4853966332548225
video_on	action	1	meg	2	y4QvuoaDTSM	Making a cake	Food&Drink_prep.&Presentation&Clean-up	Eating and drinking Activities	Food & Drink Prep., Presentation, & Clean-up	Food and drink preparation	332	5	True	False	False	True	0.4529194507790635
video_on	action	1	meg	2	ZmWEkBAvOsw	Hanging wallpaper	Interior_maintenance&Repair&Decoration	Household Activities	Interior Maintenance, Repair, & Decoration	Interior arrangement, decoration, & repairs	319	7	True	False	False	True	0.2697332534385168
video_on	action	1	meg	2	O9wYxBzuVB4	Hurling	Participating_in_sports&Exercise&Recreation	Sports, Exercise, and Recreation	Participating in Sports, Exercise, or Recreation	Playing sports	323	1	True	True	True	True	0.3018663052289412
video_on	action	1	meg	2	PMY5AlDrReg	Waxing skis	Appliances&Tools&Toys	Household Activities	Appliances, Tools, and Toys	Appliance, tool, and toy set-up, repair, & maintenance (by self)	387	10	True	False	False	True	0.573470240997267
video_on	action	1	meg	2	rsAVL4BTePg	Springboard diving	Participating_in_sports&Exercise&Recreation	Sports, Exercise, and Recreation	Participating in Sports, Exercise, or Recreation	Participating in water sports	193	1	True	True	False	False	0.1902257829347036
video_on	action	1	meg	2	NKF1vHA6DaY	Polishing forniture	Housework	Household Activities	Housework	Interior cleaning	156	6	True	False	False	True	0.0050970584375136
video_on	action	1	meg	2	Y6GmcF_uNuM	Making a sandwich	Food&Drink_prep.&Presentation&Clean-up	Eating and drinking Activities	Food & Drink Prep., Presentation, & Clean-up	Food and drink preparation	129	5	True	False	False	True	0.3179852053995091
video_on	action	1	meg	2	sKt-WVnHiY8	Brushing teeth	Grooming	Personal Care	Grooming	Washing, dressing and grooming oneself	148	4	True	False	False	True	0.4539047512676006
video_on	action	1	meg	2	GNgUd5JUjp0	Smoking hookah	Relaxing&Leisure	Socializing, Relaxing, and Leisure	Relaxing and Leisure	Tobacco and drug use	189	3	True	False	False	True	0.4802606337134421
video_on	action	1	meg	2	Vm7Of881ndc	Tug of war	Relaxing&Leisure	Socializing, Relaxing, and Leisure	Relaxing and Leisure	Playing games	382	3	True	False	True	False	0.3504877448722254
video_on	action	1	meg	2	I6riV09yqm8	Using uneven bars	Participating_in_sports&Exercise&Recreation	Sports, Exercise, and Recreation	Participating in Sports, Exercise, or Recreation	Doing gymnastics	192	1	True	True	True	True	0.7446997082438429
video_on	action	1	meg	2	ok2ccDnGtac	Raking leaves	Lawn&Garden&Houseplants	Household Activities	Lawn, Garden, and Houseplants	Lawn, garden, and houseplant care	354	9	True	False	False	True	0.5188129302573543
video_on	action	1	meg	2	M92zOuW_b2c	Plataform diving	Participating_in_sports&Exercise&Recreation	Sports, Exercise, and Recreation	Participating in Sports, Exercise, or Recreation	Participating in water sports	233	1	True	True	True	True	0.4308081486524315
video_on	action	1	meg	2	HyanDWD1H-k	Fixing the roof	Exterior_maintenance&Repair&Decoration	Household Activities	Exterior Maintenance, Repair, & Decoration	Exterior repair, improvements, & decoration	311	12	True	False	False	True	0.4637272673762709
video_on	action	1	meg	2	QyNy7wMOEOA	Throwing darts	Relaxing&Leisure	Socializing, Relaxing, and Leisure	Relaxing and Leisure	Playing games	380	3	True	False	False	True	0.4472548785806793
video_on	action	1	meg	2	99FRVErQEas	Waterskiing	Participating_in_sports&Exercise&Recreation	Sports, Exercise, and Recreation	Participating in Sports, Exercise, or Recreation	Participating in water sports	386	1	True	True	True	True	0.3673060755668302
video_on	action	1	meg	2	611HOeqPito	Capoeira	Participating_in_sports&Exercise&Recreation	Sports, Exercise, and Recreation	Participating in Sports, Exercise, or Recreation	Participating in martial arts	294	1	True	True	True	True	0.4795497321665607
video_on	action	1	meg	2	ntUDbzixwu8	Using the pommel horse	Participating_in_sports&Exercise&Recreation	Sports, Exercise, and Recreation	Participating in Sports, Exercise, or Recreation	Doing gymnastics	114	1	True	True	True	True	0.4906458336795367
video_on	action	1	meg	2	IN8aN9u_6n4	Hopscotch	Relaxing&Leisure	Socializing, Relaxing, and Leisure	Relaxing and Leisure	Playing games	241	3	True	False	True	False	0.442063637008232
video_on	action	1	meg	2	v3o1h_nPWk4	Hitting a pinata	Relaxing&Leisure	Socializing, Relaxing, and Leisure	Relaxing and Leisure	Playing games	321	3	True	False	False	True	0.6721771850411642
video_on	action	1	meg	2	b46curvFRBM	Using the balance beam	Participating_in_sports&Exercise&Recreation	Sports, Exercise, and Recreation	Participating in Sports, Exercise, or Recreation	Doing gymnastics	180	1	True	True	True	True	0.4420319407608986
video_on	action	1	meg	2	5hssytqccOI	Discus throw	Participating_in_sports&Exercise&Recreation	Sports, Exercise, and Recreation	Participating in Sports, Exercise, or Recreation	Playing sports	92	1	True	True	True	True	0.7435483797935376
video_on	action	1	meg	2	24Gjn6WPhWc	Shaving	Grooming	Personal Care	Grooming	Washing, dressing and grooming oneself	190	4	True	False	False	True	0.296414852559792
video_on	action	1	meg	2	8MpLEiZyV3A	Riding bumper cars	Relaxing&Leisure	Socializing, Relaxing, and Leisure	Relaxing and Leisure	Playing games	356	3	True	False	True	False	0.2813105341724622
video_on	action	1	meg	2	1naXNAR0h7A	Cheerleading	Arts&Entertainment	Socializing, Relaxing, and Leisure	Arts and Entertainment	Dancing	140	2	True	False	True	False	0.3207364396662342
video_on	action	1	meg	2	_BseugMaq2w	Doing nails	Grooming	Personal Care	Grooming	Washing, dressing and grooming oneself	167	4	True	False	False	True	0.3208722807262347
video_on	action	1	meg	2	J03rWB9A8lw	Having an ice cream	Food&Drink_prep.&Presentation&Clean-up	Eating and drinking Activities	Food & Drink Prep., Presentation, & Clean-up	Eating and Drinking	320	5	True	False	False	True	0.5057872819561453
video_on	action	1	meg	2	IvsCFV0WgDY	Washing dishes	Food&Drink_prep.&Presentation&Clean-up	Eating and drinking Activities	Food & Drink Prep., Presentation, & Clean-up	Kitchen and food clean-up	213	5	True	False	False	True	0.3531755866447383
video_on	action	1	meg	2	zP8EWMxCaZM	Kite flying	Relaxing&Leisure	Socializing, Relaxing, and Leisure	Relaxing and Leisure	Playing games	327	3	True	False	False	True	0.4814699210160142
video_on	action	1	meg	2	lmVUVV0nzPY	Ironing clothes	Housework	Household Activities	Housework	Laundry	83	6	True	False	False	True	0.5136307447560284
video_on	action	1	meg	2	klwcs0Yf49U	Brushing hair	Grooming	Personal Care	Grooming	Washing, dressing and grooming oneself	125	4	True	False	False	True	0.3537047630402412
video_on	action	1	meg	2	RJq5l-1gFiI	Baton twirling	Participating_in_sports&Exercise&Recreation	Sports, Exercise, and Recreation	Participating in Sports, Exercise, or Recreation	Playing sports	277	1	True	True	True	True	0.4019376972523787
video_on	action	1	meg	2	HJyVztMKJhE	Playing lacrosse	Participating_in_sports&Exercise&Recreation	Sports, Exercise, and Recreation	Participating in Sports, Exercise, or Recreation	Playing racquet sports	209	1	True	True	True	True	0.3315330871087099
video_on	action	1	meg	2	lJjyjfQhVeA	Skateboarding	Participating_in_sports&Exercise&Recreation	Sports, Exercise, and Recreation	Participating in Sports, Exercise, or Recreation	Playing sports	176	1	True	True	True	True	0.3941066110828615
video_on	action	1	meg	2	uMzf7upvAeM	Ping-pong	Participating_in_sports&Exercise&Recreation	Sports, Exercise, and Recreation	Participating in Sports, Exercise, or Recreation	Playing racquet sports	119	1	True	True	True	True	0.3544769439986339
video_on	action	1	meg	2	n0wqKOL77UY	Getting a haircut	Grooming	Personal Care	Grooming	Washing, dressing and grooming	208	4	True	False	False	True	0.3064945610749419
video_on	action	1	meg	2	qtYSvM8iB3w	Snow tubing	Participating_in_sports&Exercise&Recreation	Sports, Exercise, and Recreation	Participating in Sports, Exercise, or Recreation	Skiing, ice skating, snowboarding	372	1	True	True	False	False	0.5225793500458167
video_on	action	1	meg	2	xKFUFO7S9yw	Building sandcastles	Arts&Entertainment	Socializing, Relaxing, and Leisure	Arts and Entertainment	Beach activities	286	2	True	False	False	True	0.634669053444668
video_on	action	1	meg	2	P6LUTbPafOs	Playing piano	Arts&Entertainment	Socializing, Relaxing, and Leisure	Arts and Entertainment	Playing musical instruments	197	2	True	False	False	True	0.4932087016763944
video_on	action	1	meg	2	vajtNYawgc4	Playing water polo	Participating_in_sports&Exercise&Recreation	Sports, Exercise, and Recreation	Participating in Sports, Exercise, or Recreation	Participating in water sports	130	1	True	True	True	True	0.3785588471018855
video_on	action	1	meg	2	fr8VTa0OyGI	Triple jump	Participating_in_sports&Exercise&Recreation	Sports, Exercise, and Recreation	Participating in Sports, Exercise, or Recreation	Playing sports	155	1	True	True	True	True	0.49128911656544
video_on	action	1	meg	2	jI-ZLgd87cE	Longboarding	Participating_in_sports&Exercise&Recreation	Sports, Exercise, and Recreation	Participating in Sports, Exercise, or Recreation	Playing sports	331	1	True	True	False	False	0.4693643694940874
video_on	action	1	meg	2	g5-3NRvNGRA	Cleaning windows	Housework	Household Activities	Housework	Interior cleaning	143	6	True	False	True	False	0.3069660804872001
video_on	action	1	meg	2	0OIOPU2Sg3s	Ice fishing	Participating_in_sports&Exercise&Recreation	Sports, Exercise, and Recreation	Participating in Sports, Exercise, or Recreation	Fishing	324	1	True	True	False	False	0.547789941422252
video_on	action	1	meg	2	lNOA3dF2eEs	Getting a piercing	Grooming	Personal Care	Grooming	Washing, dressing and grooming	214	4	True	False	False	True	0.5067553759095063
video_on	action	1	meg	2	RI-Vsr2PjkQ	Tango	Arts&Entertainment	Socializing, Relaxing, and Leisure	Arts and Entertainment	Dancing	73	2	True	False	True	False	0.331307590949109
video_on	action	1	meg	2	9tAY0KIl5lg	Scuba diving	Participating_in_sports&Exercise&Recreation	Sports, Exercise, and Recreation	Participating in Sports, Exercise, or Recreation	Participating in water sports	364	1	True	True	False	False	0.4916610192003645
video_on	action	1	meg	2	9Jt7iDc5jlM	Doing motocross	Participating_in_sports&Exercise&Recreation	Sports, Exercise, and Recreation	Participating in Sports, Exercise, or Recreation	Playing sports	243	1	False	True	False	False	0.0
video_on	action	1	eeg	2	pq4SbY-YDrE	Pole vault	Participating_in_sports&Exercise&Recreation	Sports, Exercise, and Recreation	Participating in Sports, Exercise, or Recreation	Playing sports	106	1	True	True	True	True	0.005072600004496
video_on	action	1	eeg	2	SR6F5yt4wFE	Bullfighting	Participating_in_sports&Exercise&Recreation	Sports, Exercise, and Recreation	Participating in Sports, Exercise, or Recreation	Participating in rodeo competitions	288	1	True	True	False	False	0.0050704999885056
video_on	action	1	eeg	2	tpqtixvk030	Doing kickboxing	Participating_in_sports&Exercise&Recreation	Sports, Exercise, and Recreation	Participating in Sports, Exercise, or Recreation	Participating in martial arts	70	1	True	True	True	True	0.0050810000102501
video_on	action	1	eeg	2	_KLgKZ84CNw	Trimming branches or hedges	Lawn&Garden&Houseplants	Household Activities	Lawn, Garden, and Houseplants	Lawn, garden, and houseplant care	381	9	True	False	False	True	0.4872371999954339
video_on	action	1	eeg	2	hhd6WJEJ3bY	Playing polo	Participating_in_sports&Exercise&Recreation	Sports, Exercise, and Recreation	Participating in Sports, Exercise, or Recreation	Participating in equestrian sports	75	1	True	True	True	True	0.0051207000215072
video_on	action	1	eeg	2	41xqneu4_RA	Playing racquetball	Participating_in_sports&Exercise&Recreation	Sports, Exercise, and Recreation	Participating in Sports, Exercise, or Recreation	Playing racquet sports	253	1	True	True	True	True	0.5286513000028208
video_on	action	1	eeg	2	syeGMq5mhoQ	Breakdancing	Arts&Entertainment	Socializing, Relaxing, and Leisure	Arts and Entertainment	Dancing	236	2	True	False	False	True	0.4899129999976139
video_on	action	1	eeg	2	B2EeJI87ujU	Having an ice cream	Food&Drink_prep.&Presentation&Clean-up	Eating and drinking Activities	Food & Drink Prep., Presentation, & Clean-up	Eating and Drinking	320	5	True	False	False	True	0.5451036999875214
video_on	action	1	eeg	2	bzWhCBvdA64	Playing saxophone	Arts&Entertainment	Socializing, Relaxing, and Leisure	Arts and Entertainment	Playing musical instruments	109	2	True	False	False	True	0.542844600015087
video_on	action	1	eeg	2	gSuJ04fKf6Q	Cleaning windows	Housework	Household Activities	Housework	Interior cleaning	143	6	True	False	False	True	0.6571635000000242
video_on	action	1	eeg	2	uIfQWkp-igg	Baton twirling	Participating_in_sports&Exercise&Recreation	Sports, Exercise, and Recreation	Participating in Sports, Exercise, or Recreation	Playing sports	277	1	True	True	False	False	0.8159019000013359
video_on	action	1	eeg	2	w98VLbQdM4c	Skateboarding	Participating_in_sports&Exercise&Recreation	Sports, Exercise, and Recreation	Participating in Sports, Exercise, or Recreation	Playing sports	176	1	True	True	False	False	0.9063294999941718
video_on	action	1	eeg	2	uu06AZsKBNI	Making an omelette	Food&Drink_prep.&Presentation&Clean-up	Eating and drinking Activities	Food & Drink Prep., Presentation, & Clean-up	Food and drink preparation	334	5	True	False	False	True	0.6894156000053044
video_on	action	1	eeg	2	9lIOy8J4OHU	Making a cake	Food&Drink_prep.&Presentation&Clean-up	Eating and drinking Activities	Food & Drink Prep., Presentation, & Clean-up	Food and drink preparation	332	5	True	False	False	True	0.8161085000028834
video_on	action	1	eeg	2	6RIJglgNoOI	Plataform diving	Participating_in_sports&Exercise&Recreation	Sports, Exercise, and Recreation	Participating in Sports, Exercise, or Recreation	Participating in water sports	233	1	True	True	True	True	0.7517607000190765
video_on	action	1	eeg	2	4TtLzi8b5_A	High jump	Participating_in_sports&Exercise&Recreation	Sports, Exercise, and Recreation	Participating in Sports, Exercise, or Recreation	Playing sports	195	1	True	True	True	True	0.659197300003143
video_on	action	1	eeg	2	w7Big82BQR4	Tumbling	Participating_in_sports&Exercise&Recreation	Sports, Exercise, and Recreation	Participating in Sports, Exercise, or Recreation	Doing gymnastics	258	1	True	True	True	True	0.9915959000063594
video_on	action	1	eeg	2	wiWG6DRMw8M	Washing hands	Grooming	Personal Care	Grooming	Washing, dressing and grooming oneself	173	4	True	False	False	True	0.6095378000172786
video_on	action	1	eeg	2	53Mtbkyf5CQ	Knitting	Housework	Household Activities	Housework	Sewing, repairing, & maintaining textiles	329	6	True	False	False	True	0.7899173000187147
video_on	action	1	eeg	2	_Y4IIESrk68	Shoveling snow	Exterior_maintenance&Repair&Decoration	Household Activities	Exterior Maintenance, Repair, & Decoration	Exterior cleaning	183	12	True	False	False	True	0.5810628999897745
video_on	action	1	eeg	2	JrKZ9dnz15s	Playing congas	Arts&Entertainment	Socializing, Relaxing, and Leisure	Arts and Entertainment	Playing musical instruments	345	2	True	False	False	True	0.6713838999858126
video_on	action	1	eeg	2	82jBuTPLQPY	Hopscotch	Relaxing&Leisure	Socializing, Relaxing, and Leisure	Relaxing and Leisure	Playing games	241	3	False	False	False	True	0.0
video_on	action	1	eeg	2	wJ0nNpt9OMk	Blow-drying hair	Grooming	Personal Care	Grooming	Washing, dressing and grooming oneself	281	4	True	False	False	True	0.0050699999846983
video_on	action	1	eeg	2	psQMWxlHfsA	Shot put	Participating_in_sports&Exercise&Recreation	Sports, Exercise, and Recreation	Participating in Sports, Exercise, or Recreation	Playing sports	169	1	True	True	True	True	0.5971948000078555
video_on	action	1	eeg	2	0s_afnRZukw	Making a sandwich	Food&Drink_prep.&Presentation&Clean-up	Eating and drinking Activities	Food & Drink Prep., Presentation, & Clean-up	Food and drink preparation	129	5	True	False	False	True	0.7755835999851115
video_on	action	1	eeg	2	v79nh_3vpVk	Playing field hockey	Participating_in_sports&Exercise&Recreation	Sports, Exercise, and Recreation	Participating in Sports, Exercise, or Recreation	Playing hockey	94	1	True	True	True	True	0.5705776000104379
video_on	action	1	eeg	2	uhMew087f8I	Rollerblading	Participating_in_sports&Exercise&Recreation	Sports, Exercise, and Recreation	Participating in Sports, Exercise, or Recreation	Playing sports	359	1	True	True	True	True	0.9579182000015862
video_on	action	1	eeg	2	Pk4s1Qk-OXU	Playing blackjack	Arts&Entertainment	Socializing, Relaxing, and Leisure	Arts and Entertainment	Attending gambling establishments	343	2	True	False	False	True	0.5798037000058684
video_on	action	1	eeg	2	rmCa3Ppelo8	Getting a haircut	Grooming	Personal Care	Grooming	Washing, dressing and grooming	208	4	False	False	False	True	0.0
video_on	action	1	eeg	2	qEJHEtU1YnY	Ironing clothes	Housework	Household Activities	Housework	Laundry	83	6	True	False	False	True	0.6214868000242859
video_on	action	1	eeg	2	KPNwB4A6htE	Playing lacrosse	Participating_in_sports&Exercise&Recreation	Sports, Exercise, and Recreation	Participating in Sports, Exercise, or Recreation	Playing racquet sports	209	1	True	True	False	False	0.5502862999856006
video_on	action	1	eeg	2	jelx-4cFlFY	Doing nails	Grooming	Personal Care	Grooming	Washing, dressing and grooming oneself	167	4	False	False	False	True	0.0
video_on	action	1	eeg	2	H70E1GSuEkw	Hula hoop	Relaxing&Leisure	Socializing, Relaxing, and Leisure	Relaxing and Leisure	Playing games	322	3	True	False	False	True	0.6322485999844503
video_on	action	1	eeg	2	RiNGE5SF-Rk	Bathing dog	Animals&Pets	Household Activities	Animals and Pets	Care for animals and pets (not veterinary care)	90	8	True	False	False	True	0.7554979999840725
video_on	action	1	eeg	2	x4sbY5-FzFc	Clean and jerk	Participating_in_sports&Exercise&Recreation	Sports, Exercise, and Recreation	Participating in Sports, Exercise, or Recreation	Weightlifting	84	1	True	True	True	True	0.656679300009273
video_on	action	1	eeg	2	zkVMVJ7qI98	Arm wrestling	Participating_in_sports&Exercise&Recreation	Sports, Exercise, and Recreation	Participating in Sports, Exercise, or Recreation	Wrestling	271	1	True	True	False	False	0.6127293999888934
video_on	action	1	eeg	2	71r1RNr2c94	Getting a tattoo	Grooming	Personal Care	Grooming	Washing, dressing and grooming	187	4	True	False	False	True	0.6618228000006638
video_on	action	1	eeg	2	rvOIixBYEXo	Beach soccer	Participating_in_sports&Exercise&Recreation	Sports, Exercise, and Recreation	Participating in Sports, Exercise, or Recreation	Playing soccer	278	1	True	True	True	True	0.6623856000078376
video_on	action	1	eeg	2	0O-fPMKkWeo	Starting a campfire	Participating_in_sports&Exercise&Recreation	Sports, Exercise, and Recreation	Participating in Sports, Exercise, or Recreation	Playing sports	153	1	True	True	False	False	0.5445595000055619
video_on	action	1	eeg	2	LpL-WBMY1ho	Doing motocross	Participating_in_sports&Exercise&Recreation	Sports, Exercise, and Recreation	Participating in Sports, Exercise, or Recreation	Playing sports	243	1	True	True	True	True	0.8393546000006609
video_on	action	1	eeg	2	92im3frwI38	Painting	Interior_maintenance&Repair&Decoration	Household Activities	Interior Maintenance, Repair, & Decoration	Interior arrangement, decoration, & repairs	217	7	True	False	False	True	0.6608507999917492
video_on	action	1	eeg	2	NfZMg4bLJ80	Using the balance beam	Participating_in_sports&Exercise&Recreation	Sports, Exercise, and Recreation	Participating in Sports, Exercise, or Recreation	Doing gymnastics	180	1	True	True	True	True	0.662564400001429
video_on	action	1	eeg	2	ObPci84eaig	Polishing forniture	Housework	Household Activities	Housework	Interior cleaning	156	6	True	False	False	True	0.5259062000259291
video_on	action	1	eeg	2	vn7-IrZojlI	Painting fence	Exterior_maintenance&Repair&Decoration	Household Activities	Exterior Maintenance, Repair, & Decoration	Painting fence	336	12	True	False	False	True	0.7292062000196893
video_on	action	1	eeg	2	-OrZGeem7u8	Brushing teeth	Grooming	Personal Care	Grooming	Washing, dressing and grooming oneself	148	4	True	False	False	True	0.68071419998887
video_on	action	1	eeg	2	1Qr1_-H17cg	Springboard diving	Participating_in_sports&Exercise&Recreation	Sports, Exercise, and Recreation	Participating in Sports, Exercise, or Recreation	Participating in water sports	193	1	True	True	True	True	0.5899380999908317
video_on	action	1	eeg	2	gehygUd0WV8	Kite flying	Relaxing&Leisure	Socializing, Relaxing, and Leisure	Relaxing and Leisure	Playing games	327	3	True	False	False	True	0.9859275000053458
video_on	action	1	eeg	2	HfW3gMvTAo8	Making a lemonade	Food&Drink_prep.&Presentation&Clean-up	Eating and drinking Activities	Food & Drink Prep., Presentation, & Clean-up	Food and drink preparation	333	5	True	False	False	True	0.862848099990515
video_on	action	1	eeg	2	4KJD4aP90YQ	Playing guitarra	Arts&Entertainment	Socializing, Relaxing, and Leisure	Arts and Entertainment	Playing musical instruments	251	2	True	False	False	True	0.7770315999805462
video_on	action	1	eeg	2	5WrMtj1-r0Y	Laying tile	Interior_maintenance&Repair&Decoration	Household Activities	Interior Maintenance, Repair, & Decoration	Interior arrangement, decoration, & repairs	330	7	True	False	False	True	0.6059504000004381
video_on	action	1	eeg	2	_VThotpGq7g	Cleaning sink	Interior_maintenance&Repair&Decoration	Household Activities	Interior Maintenance, Repair, & Decoration	Interior arrangement, decoration, & repairs	297	7	True	False	False	True	0.5113522000028752
video_on	action	1	eeg	2	TNnyYAWNYIo	Mixing drinks	Food&Drink_prep.&Presentation&Clean-up	Eating and drinking Activities	Food & Drink Prep., Presentation, & Clean-up	Food and drink preparation	244	5	True	False	False	True	0.8796755999792367
video_on	action	1	eeg	2	SjwFCog0amE	Putting on shoes	Grooming	Personal Care	Grooming	Washing, dressing and grooming oneself	352	4	True	False	False	True	0.754329699993832
video_on	action	1	eeg	2	zNrWEiCSibM	Shaving	Grooming	Personal Care	Grooming	Washing, dressing and grooming oneself	190	4	True	False	False	True	0.5264202000107616
video_on	action	1	eeg	2	LS9HeeyVIHs	Vacuuming floor	Housework	Household Activities	Housework	Interior cleaning	160	6	True	False	False	True	0.970151599991368
video_on	action	1	eeg	2	RW0uOIg_9Ek	Wrapping presents	Household_management	Household Activities	Household Management	Household & personal organization and planning	179	13	True	False	False	True	0.0050680999993346
video_on	action	1	eeg	2	HFASoMsQtEM	Playing rubik cube	Relaxing&Leisure	Socializing, Relaxing, and Leisure	Relaxing and Leisure	Playing games	349	3	True	False	False	True	0.6098007000109646
video_on	action	1	eeg	2	mMHOS2D9ZaY	Doing fencing	Participating_in_sports&Exercise&Recreation	Sports, Exercise, and Recreation	Participating in Sports, Exercise, or Recreation	Fencing	309	1	True	True	True	True	0.9169049999909475
video_on	action	1	eeg	2	PriUXIS6bDw	Hanging wallpaper	Interior_maintenance&Repair&Decoration	Household Activities	Interior Maintenance, Repair, & Decoration	Interior arrangement, decoration, & repairs	319	7	True	False	False	True	0.7106803000206128
video_on	action	1	eeg	2	hVDrHm-LrhE	Hurling	Participating_in_sports&Exercise&Recreation	Sports, Exercise, and Recreation	Participating in Sports, Exercise, or Recreation	Playing sports	323	1	True	True	True	True	0.6547339000098873
video_on	action	1	eeg	2	OYfaL3TVji0	Futsal	Participating_in_sports&Exercise&Recreation	Sports, Exercise, and Recreation	Participating in Sports, Exercise, or Recreation	Playing soccer	315	1	True	True	True	True	0.6962793999991845
video_on	action	1	eeg	2	E7m_jmMTJYs	Raking leaves	Lawn&Garden&Houseplants	Household Activities	Lawn, Garden, and Houseplants	Lawn, garden, and houseplant care	354	9	True	False	False	True	0.7879361000086647
video_on	action	1	eeg	2	tgCMsSqfR1A	Sailing	Participating_in_sports&Exercise&Recreation	Sports, Exercise, and Recreation	Participating in Sports, Exercise, or Recreation	Participating in water sports	240	1	True	True	False	False	0.9796829000115396
video_on	action	1	eeg	2	H-OhJFSJuVU	Grooming dog	Animals&Pets	Household Activities	Animals and Pets	Care for animals and pets (not veterinary care)	317	8	True	False	False	True	0.7644793000072241
video_on	action	1	eeg	2	qRFamkTRHTs	Decorating the Christmas tree	Interior_maintenance&Repair&Decoration	Household Activities	Interior Maintenance, Repair, & Decoration	Interior arrangement, decoration, & repairs	302	7	True	False	False	True	0.8632346999947913
video_on	action	1	eeg	2	4uE1GMYUQb8	Fun sliding down	Arts&Entertainment	Socializing, Relaxing, and Leisure	Arts and Entertainment	Park activities	313	2	True	False	False	True	0.6694563000055496
video_on	action	1	eeg	2	pK4NTbK5rHM	Assembling bicycle	Vehicles	Household Activities	Vehicles	Vehicle repair and maintenance (by self)	273	11	True	False	False	True	0.961821400007466
video_on	action	1	eeg	2	gUaVdPbGKY4	Brushing hair	Grooming	Personal Care	Grooming	Washing, dressing and grooming oneself	125	4	True	False	False	True	0.8805057000136003
video_on	action	1	eeg	2	x4LW4Jd1mnM	Doing step aerobics	Participating_in_sports&Exercise&Recreation	Sports, Exercise, and Recreation	Participating in Sports, Exercise, or Recreation	Doing aerobics	230	1	True	True	False	False	0.802993699995568
video_on	action	1	eeg	2	GrrMeHeplMc	Welding	Appliances&Tools&Toys	Household Activities	Appliances, Tools, and Toys	Appliance, tool, and toy set-up, repair, & maintenance (by self)	388	10	True	False	False	True	0.719293000001926
video_on	action	1	eeg	2	dmki8So5w2E	Longboarding	Participating_in_sports&Exercise&Recreation	Sports, Exercise, and Recreation	Participating in Sports, Exercise, or Recreation	Playing sports	331	1	True	True	False	False	0.8420808000082616
video_on	action	1	eeg	2	MEgmWG1n3yk	Rope skipping	Participating_in_sports&Exercise&Recreation	Sports, Exercise, and Recreation	Participating in Sports, Exercise, or Recreation	Working out	361	1	True	True	True	True	0.8870122999942396
video_on	action	1	eeg	2	8xH1mxaQRSA	Using parallel bars	Participating_in_sports&Exercise&Recreation	Sports, Exercise, and Recreation	Participating in Sports, Exercise, or Recreation	Doing gymnastics	88	1	True	True	True	True	0.5567065000068396
video_on	action	1	eeg	2	vc0YxA_M_Rw	Chopping wood	Interior_maintenance&Repair&Decoration	Household Activities	Interior Maintenance, Repair, & Decoration	Heating and cooling	110	7	True	False	False	True	0.8886726000055205
video_on	action	1	eeg	2	rbb24leMbYA	Playing flauta	Arts&Entertainment	Socializing, Relaxing, and Leisure	Arts and Entertainment	Playing musical instruments	149	2	True	False	False	True	0.6709940000146162
video_on	action	1	eeg	2	3idUJzXtG8E	Swinging at the playground	Arts&Entertainment	Socializing, Relaxing, and Leisure	Arts and Entertainment	Park activities	378	2	True	False	False	True	0.7363507999980357
video_on	action	1	eeg	2	yccZtv63Av4	Playing kickball	Participating_in_sports&Exercise&Recreation	Sports, Exercise, and Recreation	Participating in Sports, Exercise, or Recreation	Playing sports	257	1	True	True	False	False	0.9830825999961236
video_on	action	1	eeg	2	zrmWnvPnfds	Cutting the grass	Lawn&Garden&Houseplants	Household Activities	Lawn, Garden, and Houseplants	Lawn, garden, and houseplant care	301	9	True	False	False	True	0.936763300007442
video_on	action	1	eeg	2	W_g1il_23OI	Snatch	Participating_in_sports&Exercise&Recreation	Sports, Exercise, and Recreation	Participating in Sports, Exercise, or Recreation	Weightlifting	79	1	True	True	True	True	0.9812639000010676
video_on	action	1	eeg	2	3AA_jNQ7Rbo	Smoking hookah	Relaxing&Leisure	Socializing, Relaxing, and Leisure	Relaxing and Leisure	Tobacco and drug use	189	3	True	False	False	True	0.884543099993607
video_on	action	1	eeg	2	TOYjrZqorCI	Capoeira	Participating_in_sports&Exercise&Recreation	Sports, Exercise, and Recreation	Participating in Sports, Exercise, or Recreation	Participating in martial arts	294	1	True	True	False	False	0.8001356000022497
video_on	action	1	eeg	2	9wHXWTin-_w	Windsurfing	Participating_in_sports&Exercise&Recreation	Sports, Exercise, and Recreation	Participating in Sports, Exercise, or Recreation	Participating in water sports	237	1	True	True	True	True	0.6380934999906458
video_on	action	1	eeg	2	RZptBz04LAw	Grooming horse	Animals&Pets	Household Activities	Animals and Pets	Walking / exercising / playing with animals	95	8	True	False	False	True	0.6280441000126302
video_on	action	1	eeg	2	qSAJIVmQWWE	Rock-paper-scissors	Relaxing&Leisure	Socializing, Relaxing, and Leisure	Relaxing and Leisure	Playing games	358	3	True	False	False	True	0.6282789999968372
video_on	action	1	eeg	2	pJZmEt32s58	Zumba	Participating_in_sports&Exercise&Recreation	Sports, Exercise, and Recreation	Participating in Sports, Exercise, or Recreation	Doing aerobics	69	1	True	True	False	False	0.547877500008326
video_on	action	1	eeg	2	ewsAsvx2OFg	Plastering	Interior_maintenance&Repair&Decoration	Household Activities	Interior Maintenance, Repair, & Decoration	Interior arrangement, decoration, & repairs	340	7	True	False	False	True	0.0050694000092335
video_on	action	1	eeg	2	X33G9KbkR1g	Playing water polo	Participating_in_sports&Exercise&Recreation	Sports, Exercise, and Recreation	Participating in Sports, Exercise, or Recreation	Participating in water sports	130	1	True	True	True	True	0.7787717999890447
video_on	action	1	eeg	2	W_LW9I9fTFU	Rafting	Participating_in_sports&Exercise&Recreation	Sports, Exercise, and Recreation	Participating in Sports, Exercise, or Recreation	Boating	353	1	True	True	True	True	0.989835000014864
video_on	action	1	eeg	2	4AAteRnJKyk	Kneeling	Participating_in_sports&Exercise&Recreation	Sports, Exercise, and Recreation	Participating in Sports, Exercise, or Recreation	Working out	328	1	True	True	True	True	0.9752830999786966
video_on	action	1	eeg	2	IEupzFVWqbU	Table soccer	Relaxing&Leisure	Socializing, Relaxing, and Leisure	Relaxing and Leisure	Playing games	379	3	False	False	False	True	0.0
video_on	action	1	meg	3	opVM5W0Vne4	Putting on makeup	Grooming	Personal Care	Grooming	Washing, dressing and grooming oneself	76	4	True	False	False	True	0.5712949728240346
video_on	action	1	meg	3	Vf1uE7haYd8	Rock-paper-scissors	Relaxing&Leisure	Socializing, Relaxing, and Leisure	Relaxing and Leisure	Playing games	358	3	True	False	True	False	0.3534279491468624
video_on	action	1	meg	3	XKUZ-wYrLxM	Sumo	Participating_in_sports&Exercise&Recreation	Sports, Exercise, and Recreation	Participating in Sports, Exercise, or Recreation	Wrestling	375	1	True	True	True	True	0.3555857089168057
video_on	action	1	meg	3	rpNFb6-tqDo	Playing badminton	Participating_in_sports&Exercise&Recreation	Sports, Exercise, and Recreation	Participating in Sports, Exercise, or Recreation	Playing racquet sports	268	1	True	True	True	True	0.3476824760505224
video_on	action	1	meg	3	AeUOth2X2Cs	Building sandcastles	Arts&Entertainment	Socializing, Relaxing, and Leisure	Arts and Entertainment	Beach activities	286	2	True	False	False	True	0.3477126629527447
video_on	action	1	meg	3	5wA1pHRj6m8	Kayaking	Participating_in_sports&Exercise&Recreation	Sports, Exercise, and Recreation	Participating in Sports, Exercise, or Recreation	Participating in water sports	254	1	True	True	True	True	0.5307168332728907
video_on	action	1	meg	3	GlMx2qQDfW4	Using the pommel horse	Participating_in_sports&Exercise&Recreation	Sports, Exercise, and Recreation	Participating in Sports, Exercise, or Recreation	Doing gymnastics	114	1	True	True	True	True	0.3161924052774338
video_on	action	1	meg	3	DgiemNB0ilU	Scuba diving	Participating_in_sports&Exercise&Recreation	Sports, Exercise, and Recreation	Participating in Sports, Exercise, or Recreation	Participating in water sports	364	1	True	True	False	False	0.4683636736854168
video_on	action	1	meg	3	Cw31aGbzOxA	Playing bagpipes	Arts&Entertainment	Socializing, Relaxing, and Leisure	Arts and Entertainment	Playing musical instruments	136	2	True	False	False	True	0.5083287172528799
video_on	action	1	meg	3	pvKXCykFrXE	Painting fence	Exterior_maintenance&Repair&Decoration	Household Activities	Exterior Maintenance, Repair, & Decoration	Painting fence	336	12	True	False	False	True	0.3247666929796651
video_on	action	1	meg	3	0KcCyJ_jwmU	Playing pool	Relaxing&Leisure	Socializing, Relaxing, and Leisure	Relaxing and Leisure	Playing games	348	3	True	False	True	False	0.2929234354505752
video_on	action	1	meg	3	SI4IcYECoYI	Camel ride	Participating_in_sports&Exercise&Recreation	Sports, Exercise, and Recreation	Participating in Sports, Exercise, or Recreation	Playing sports	291	1	True	True	False	False	0.540994567866619
video_on	action	1	meg	3	Q0m-lrPr6jk	Playing drums	Arts&Entertainment	Socializing, Relaxing, and Leisure	Arts and Entertainment	Playing musical instruments	346	2	True	False	False	True	0.6633004245786651
video_on	action	1	meg	3	uv1vMgpHtzM	Spinning	Participating_in_sports&Exercise&Recreation	Sports, Exercise, and Recreation	Participating in Sports, Exercise, or Recreation	Using cardiovascular equipment	117	1	True	True	True	True	0.3666652076331047
video_on	action	1	meg	3	GevTUk756-8	Vacuuming floor	Housework	Household Activities	Housework	Interior cleaning	160	6	True	False	False	True	0.3720768135913204
video_on	action	1	meg	3	A5IMK_b6MYI	Rock climbing	Participating_in_sports&Exercise&Recreation	Sports, Exercise, and Recreation	Participating in Sports, Exercise, or Recreation	Climbing, spelunking, caving	188	1	True	True	True	True	0.4057995076514089
video_on	action	1	meg	3	tv63xdJqbkM	Bungee jumping	Participating_in_sports&Exercise&Recreation	Sports, Exercise, and Recreation	Participating in Sports, Exercise, or Recreation	Playing sports	154	1	True	True	True	True	0.3172302309749284
video_on	action	1	meg	3	YnuP-5Mumfw	Mixing drinks	Food&Drink_prep.&Presentation&Clean-up	Eating and drinking Activities	Food & Drink Prep., Presentation, & Clean-up	Food and drink preparation	244	5	True	False	False	True	0.5013482979870787
video_on	action	1	meg	3	wi-tDpjdLVg	Long jump	Participating_in_sports&Exercise&Recreation	Sports, Exercise, and Recreation	Participating in Sports, Exercise, or Recreation	Playing sports	80	1	True	True	True	True	0.3261423101134824
video_on	action	1	meg	3	Vo7q6YLG0Q8	Hurling	Participating_in_sports&Exercise&Recreation	Sports, Exercise, and Recreation	Participating in Sports, Exercise, or Recreation	Playing sports	323	1	True	True	True	True	0.4455816185914045
video_on	action	1	meg	3	vBvZ93erfkI	Canoeing	Participating_in_sports&Exercise&Recreation	Sports, Exercise, and Recreation	Participating in Sports, Exercise, or Recreation	Boating	292	1	True	True	True	True	0.3445363971027291
video_on	action	1	meg	3	aKPVOmh9EZw	Getting a piercing	Grooming	Personal Care	Grooming	Washing, dressing and grooming	214	4	True	False	False	True	0.3504814056227587
video_on	action	1	meg	3	PSmH8Yj0-Vg	Zumba	Participating_in_sports&Exercise&Recreation	Sports, Exercise, and Recreation	Participating in Sports, Exercise, or Recreation	Doing aerobics	69	1	True	True	True	True	0.3986983407771731
video_on	action	1	meg	3	v8AFA2C82pI	Welding	Appliances&Tools&Toys	Household Activities	Appliances, Tools, and Toys	Appliance, tool, and toy set-up, repair, & maintenance (by self)	388	10	True	False	False	True	0.5209392956489864
video_on	action	1	meg	3	UZN_zzcjVkI	Playing guitarra	Arts&Entertainment	Socializing, Relaxing, and Leisure	Arts and Entertainment	Playing musical instruments	251	2	True	False	False	True	0.6388632216367114
video_on	action	1	meg	3	B9VBHv5VLWk	Archery	Participating_in_sports&Exercise&Recreation	Sports, Exercise, and Recreation	Participating in Sports, Exercise, or Recreation	Playing sports	250	1	True	True	True	True	0.3392002584000693
video_on	action	1	meg	3	AryBXLVPRMQ	Cleaning sink	Interior_maintenance&Repair&Decoration	Household Activities	Interior Maintenance, Repair, & Decoration	Interior arrangement, decoration, & repairs	297	7	True	False	False	True	0.3432123995721667
video_on	action	1	meg	3	qvVrSyhPPQ0	Riding bumper cars	Relaxing&Leisure	Socializing, Relaxing, and Leisure	Relaxing and Leisure	Playing games	356	3	True	False	False	True	0.6793812892524329
video_on	action	1	meg	3	wUawuBrkcq8	Cutting the grass	Lawn&Garden&Houseplants	Household Activities	Lawn, Garden, and Houseplants	Lawn, garden, and houseplant care	301	9	True	False	False	True	0.4548480919611393
video_on	action	1	meg	3	qw17LdbDU04	Playing violin	Arts&Entertainment	Socializing, Relaxing, and Leisure	Arts and Entertainment	Playing musical instruments	234	2	True	False	False	True	0.5196494093179354
video_on	action	1	meg	3	8czgTMGOxcs	Trimming branches or hedges	Lawn&Garden&Houseplants	Household Activities	Lawn, Garden, and Houseplants	Lawn, garden, and houseplant care	381	9	True	False	False	True	0.3032823728108269
video_on	action	1	meg	3	oq0UYCbIcDs	Surfing	Participating_in_sports&Exercise&Recreation	Sports, Exercise, and Recreation	Participating in Sports, Exercise, or Recreation	Participating in water sports	376	1	True	True	True	True	0.3041970359481638
video_on	action	1	meg	3	gPspArcxRxc	Kneeling	Participating_in_sports&Exercise&Recreation	Sports, Exercise, and Recreation	Participating in Sports, Exercise, or Recreation	Working out	328	1	True	True	True	True	0.4342588134436482
video_on	action	1	meg	3	pE9hs7WCdpA	Putting in contact lenses	Grooming	Personal Care	Grooming	Washing, dressing and grooming oneself	351	4	True	False	False	True	0.5197906840203359
video_on	action	1	meg	3	vQEFKoa_fuk	Playing beach volleyball	Participating_in_sports&Exercise&Recreation	Sports, Exercise, and Recreation	Participating in Sports, Exercise, or Recreation	Playing volleyball	341	1	True	True	True	True	0.3038619613339506
video_on	action	1	meg	3	Vndl2OW-oKk	Hitting a pinata	Relaxing&Leisure	Socializing, Relaxing, and Leisure	Relaxing and Leisure	Playing games	321	3	True	False	False	True	0.1927608789819714
video_on	action	1	meg	3	NNJNty66DoU	Rollerblading	Participating_in_sports&Exercise&Recreation	Sports, Exercise, and Recreation	Participating in Sports, Exercise, or Recreation	Playing sports	359	1	True	True	True	True	0.4090633155183241
video_on	action	1	meg	3	OL6ZrRHtZqU	Ping-pong	Participating_in_sports&Exercise&Recreation	Sports, Exercise, and Recreation	Participating in Sports, Exercise, or Recreation	Playing racquet sports	119	1	True	True	True	True	0.3851097067490627
video_on	action	1	meg	3	Kw1NUqjcLRk	Shaving	Grooming	Personal Care	Grooming	Washing, dressing and grooming oneself	190	4	True	False	False	True	0.6332149503650726
video_on	action	1	meg	3	_dMTrJVVXsc	Table soccer	Relaxing&Leisure	Socializing, Relaxing, and Leisure	Relaxing and Leisure	Playing games	379	3	True	False	True	False	0.4914654080739637
video_on	action	1	meg	3	BXEQD0G3b7Y	Ballet	Arts&Entertainment	Socializing, Relaxing, and Leisure	Arts and Entertainment	Attending arts and entertainment	229	2	True	False	False	True	0.4570028330408604
video_on	action	1	meg	3	KknL0PtyCk0	Disc dog	Animals&Pets	Household Activities	Animals and Pets	Walking / exercising / playing with animals	303	8	True	False	False	True	0.00510400142457
video_on	action	1	meg	3	ueIB0h4SzHc	Chopping wood	Interior_maintenance&Repair&Decoration	Household Activities	Interior Maintenance, Repair, & Decoration	Heating and cooling	110	7	True	False	False	True	0.3058376940830385
video_on	action	1	meg	3	YbhTX3kJ6UY	Smoking hookah	Relaxing&Leisure	Socializing, Relaxing, and Leisure	Relaxing and Leisure	Tobacco and drug use	189	3	True	False	False	True	0.6119902375558013
video_on	action	1	meg	3	ArdI5yY3CTA	Fixing bicycle	Vehicles	Household Activities	Vehicles	Vehicle repair and maintenance (by self)	171	11	True	False	False	True	0.556225067505693
video_on	action	1	meg	3	mdcb-cAiiGo	Calf roping	Participating_in_sports&Exercise&Recreation	Sports, Exercise, and Recreation	Participating in Sports, Exercise, or Recreation	Participating in rodeo competitions	290	1	True	True	True	True	0.2992545344500286
video_on	action	1	meg	3	uFMlVrTUoR8	Spread mulch	Lawn&Garden&Houseplants	Household Activities	Lawn, Garden, and Houseplants	Lawn, garden, and houseplant care	374	9	True	False	False	True	0.4732485182003074
video_on	action	1	meg	3	vEKipzOgiuA	Walking the dog	Animals&Pets	Household Activities	Animals and Pets	Walking / exercising / playing with animals	221	8	True	False	False	True	0.3081005042722609
video_on	action	1	meg	3	QuO-tCRKf70	Clean and jerk	Participating_in_sports&Exercise&Recreation	Sports, Exercise, and Recreation	Participating in Sports, Exercise, or Recreation	Weightlifting	84	1	True	True	True	True	0.3699902949110765
video_on	action	1	meg	3	jWLKgjpFgDM	Cricket	Participating_in_sports&Exercise&Recreation	Sports, Exercise, and Recreation	Participating in Sports, Exercise, or Recreation	Playing sports	82	1	True	True	True	True	0.3383230270214881
video_on	action	1	meg	3	gRN1SmGGoqg	Washing dishes	Food&Drink_prep.&Presentation&Clean-up	Eating and drinking Activities	Food & Drink Prep., Presentation, & Clean-up	Kitchen and food clean-up	213	5	True	False	False	True	0.5146900031545556
video_on	action	1	meg	3	jVBgC9A4zhU	Playing piano	Arts&Entertainment	Socializing, Relaxing, and Leisure	Arts and Entertainment	Playing musical instruments	197	2	True	False	False	True	0.3067134161160538
video_on	action	1	meg	3	GAlReEK7W_0	Using uneven bars	Participating_in_sports&Exercise&Recreation	Sports, Exercise, and Recreation	Participating in Sports, Exercise, or Recreation	Doing gymnastics	192	1	True	True	True	True	0.3142067108501578
video_on	action	1	meg	3	kLa4eVMhMpY	Wrapping presents	Household_management	Household Activities	Household Management	Household & personal organization and planning	179	13	True	False	False	True	0.5090770505585169
video_on	action	1	meg	3	B9atfwrXJp0	Doing fencing	Participating_in_sports&Exercise&Recreation	Sports, Exercise, and Recreation	Participating in Sports, Exercise, or Recreation	Fencing	309	1	True	True	True	True	0.0051311696370248
video_on	action	1	meg	3	nMTyJxJIZUs	Doing nails	Grooming	Personal Care	Grooming	Washing, dressing and grooming oneself	167	4	True	False	False	True	0.3261571016951166
video_on	action	1	meg	3	tpFvb4_rfAA	Raking leaves	Lawn&Garden&Houseplants	Household Activities	Lawn, Garden, and Houseplants	Lawn, garden, and houseplant care	354	9	True	False	True	False	0.3082088752512391
video_on	action	1	meg	3	zY2Pxew2gjM	Preparing salad	Food&Drink_prep.&Presentation&Clean-up	Eating and drinking Activities	Food & Drink Prep., Presentation, & Clean-up	Food and drink preparation	96	5	True	False	False	True	0.6115688284007774
video_on	action	1	meg	3	C-Qe7DSods4	Bullfighting	Participating_in_sports&Exercise&Recreation	Sports, Exercise, and Recreation	Participating in Sports, Exercise, or Recreation	Participating in rodeo competitions	288	1	True	True	True	True	0.309866136182336
video_on	action	1	meg	3	af3HYcHIevM	Laying tile	Interior_maintenance&Repair&Decoration	Household Activities	Interior Maintenance, Repair, & Decoration	Interior arrangement, decoration, & repairs	330	7	True	False	False	True	0.5479037460436302
video_on	action	1	meg	3	ZlcY3EhqdIs	Making a cake	Food&Drink_prep.&Presentation&Clean-up	Eating and drinking Activities	Food & Drink Prep., Presentation, & Clean-up	Food and drink preparation	332	5	True	False	False	True	0.0051607528012027
video_on	action	1	meg	3	QYegqdhtchE	Starting a campfire	Participating_in_sports&Exercise&Recreation	Sports, Exercise, and Recreation	Participating in Sports, Exercise, or Recreation	Playing sports	153	1	True	True	False	False	0.7104164434094855
video_on	action	1	meg	3	T-5Z1JTHyv8	Getting a tattoo	Grooming	Personal Care	Grooming	Washing, dressing and grooming	187	4	True	False	False	True	0.5584999524558043
video_on	action	1	meg	3	yqtfOuiAgh4	Using the monkey bar	Arts&Entertainment	Socializing, Relaxing, and Leisure	Arts and Entertainment	Park activities	383	2	True	False	True	False	0.4067066240627355
video_on	action	1	meg	3	70_RJH0Q8UE	Pole vault	Participating_in_sports&Exercise&Recreation	Sports, Exercise, and Recreation	Participating in Sports, Exercise, or Recreation	Playing sports	106	1	True	True	True	True	0.3647486412119178
video_on	action	1	meg	3	yTvO-gKq2J4	Doing motocross	Participating_in_sports&Exercise&Recreation	Sports, Exercise, and Recreation	Participating in Sports, Exercise, or Recreation	Playing sports	243	1	True	True	True	True	0.3410075482347565
video_on	action	1	meg	3	661GWKCoteM	Paintball	Participating_in_sports&Exercise&Recreation	Sports, Exercise, and Recreation	Participating in Sports, Exercise, or Recreation	Playing sports	141	1	True	True	False	False	0.6048063585690215
video_on	action	1	meg	3	9gCLVQaxvzU	Preparing pasta	Food&Drink_prep.&Presentation&Clean-up	Eating and drinking Activities	Food & Drink Prep., Presentation, & Clean-up	Food and drink preparation	186	5	True	False	False	True	0.6276907472620223
video_on	action	1	meg	3	Tm3dquc9SNs	Drum corps	Arts&Entertainment	Socializing, Relaxing, and Leisure	Arts and Entertainment	Playing musical instruments	307	2	True	False	True	False	0.3253396403833903
video_on	action	1	meg	3	lBX6sXcXmvU	Powerbocking	Participating_in_sports&Exercise&Recreation	Sports, Exercise, and Recreation	Participating in Sports, Exercise, or Recreation	Playing sports	350	1	True	True	True	True	0.3174738392758627
video_on	action	1	meg	3	42xZHtKwv_I	Sailing	Participating_in_sports&Exercise&Recreation	Sports, Exercise, and Recreation	Participating in Sports, Exercise, or Recreation	Participating in water sports	240	1	True	True	True	True	0.2958560930001113
video_on	action	1	meg	3	Sfufv7i2MHc	Playing harmonica	Arts&Entertainment	Socializing, Relaxing, and Leisure	Arts and Entertainment	Playing musical instruments	100	2	True	False	False	True	0.397831976683392
video_on	action	1	meg	3	wuFWA7vSGGE	Rope skipping	Participating_in_sports&Exercise&Recreation	Sports, Exercise, and Recreation	Participating in Sports, Exercise, or Recreation	Working out	361	1	True	True	True	True	0.3498550274020999
video_on	action	1	meg	3	TkuVBziaRgU	Using parallel bars	Participating_in_sports&Exercise&Recreation	Sports, Exercise, and Recreation	Participating in Sports, Exercise, or Recreation	Doing gymnastics	88	1	True	True	True	True	0.390057641889598
video_on	action	1	meg	3	6I6g0AsROts	Wakeboarding	Participating_in_sports&Exercise&Recreation	Sports, Exercise, and Recreation	Participating in Sports, Exercise, or Recreation	Participating in water sports	385	1	True	True	False	False	0.6942670544681278
video_on	action	1	meg	3	8tKCSpw5e4c	Playing accordion	Arts&Entertainment	Socializing, Relaxing, and Leisure	Arts and Entertainment	Playing musical instruments	267	2	True	False	False	True	0.6872051305658715
video_on	action	1	meg	3	qNN0QS896LE	Assembling bicycle	Vehicles	Household Activities	Vehicles	Vehicle repair and maintenance (by self)	273	11	True	False	False	True	0.5506634326434323
video_on	action	1	meg	3	fTHRkC_yuB4	Triple jump	Participating_in_sports&Exercise&Recreation	Sports, Exercise, and Recreation	Participating in Sports, Exercise, or Recreation	Playing sports	155	1	True	True	True	True	0.3427680483714539
video_on	action	1	meg	3	TM1jBLkiVNE	Longboarding	Participating_in_sports&Exercise&Recreation	Sports, Exercise, and Recreation	Participating in Sports, Exercise, or Recreation	Playing sports	331	1	True	True	True	True	0.3350758219512499
video_on	action	1	meg	3	lgqH0gLvGdQ	Horseback riding	Participating_in_sports&Exercise&Recreation	Sports, Exercise, and Recreation	Participating in Sports, Exercise, or Recreation	Participating in equestrian sports	175	1	True	True	True	True	0.3351029901637048
video_on	action	1	meg	3	12qKcakc03Y	Playing squash	Participating_in_sports&Exercise&Recreation	Sports, Exercise, and Recreation	Participating in Sports, Exercise, or Recreation	Playing racquet sports	194	1	True	True	True	True	0.2946247692589168
video_on	action	1	meg	3	W4CGORYiU4Q	Using the rowing machine	Participating_in_sports&Exercise&Recreation	Sports, Exercise, and Recreation	Participating in Sports, Exercise, or Recreation	Using cardiovascular equipment	384	1	True	True	True	True	0.286161871225886
video_on	action	1	meg	3	sFgcAyiPLQs	Sharpening knives	Appliances&Tools&Toys	Household Activities	Appliances, Tools, and Toys	Appliance, tool, and toy set-up, repair, & maintenance (by self)	365	10	True	False	False	True	0.5209679732060977
video_on	action	1	meg	3	HVAe1INZ-Ec	Brushing teeth	Grooming	Personal Care	Grooming	Washing, dressing and grooming oneself	148	4	True	False	False	True	0.5132368056824816
video_on	action	1	meg	3	jIVQ5KXlPPU	Snatch	Participating_in_sports&Exercise&Recreation	Sports, Exercise, and Recreation	Participating in Sports, Exercise, or Recreation	Weightlifting	79	1	True	True	True	True	0.2947120094063393
video_on	action	1	meg	3	dS8kx_at5dw	Futsal	Participating_in_sports&Exercise&Recreation	Sports, Exercise, and Recreation	Participating in Sports, Exercise, or Recreation	Playing soccer	315	1	True	True	True	True	0.2502355333044761
video_on	action	1	meg	3	2DAwe8drT_8	Rafting	Participating_in_sports&Exercise&Recreation	Sports, Exercise, and Recreation	Participating in Sports, Exercise, or Recreation	Boating	353	1	True	True	True	True	0.3363382382017335
video_on	action	1	meg	3	CcKK2UPkHBQ	Playing water polo	Participating_in_sports&Exercise&Recreation	Sports, Exercise, and Recreation	Participating in Sports, Exercise, or Recreation	Participating in water sports	130	1	True	True	True	True	0.6070691687582439
video_on	action	1	meg	3	gD3HzCgUvH8	Ice fishing	Participating_in_sports&Exercise&Recreation	Sports, Exercise, and Recreation	Participating in Sports, Exercise, or Recreation	Fishing	324	1	True	True	True	True	0.190646588351683
video_on	action	1	meg	3	fAYDYqnA-e0	Fixing the roof	Exterior_maintenance&Repair&Decoration	Household Activities	Exterior Maintenance, Repair, & Decoration	Exterior repair, improvements, & decoration	311	12	False	False	False	True	0.0
video_on	action	1	eeg	3	xkwIBxUsM4Q	Washing dishes	Food&Drink_prep.&Presentation&Clean-up	Eating and drinking Activities	Food & Drink Prep., Presentation, & Clean-up	Kitchen and food clean-up	213	5	True	False	False	True	0.5846305000013672
video_on	action	1	eeg	3	klGP18026Ek	Rock-paper-scissors	Relaxing&Leisure	Socializing, Relaxing, and Leisure	Relaxing and Leisure	Playing games	358	3	True	False	False	True	0.7998896000208333
video_on	action	1	eeg	3	hR8C2NpzbVw	High jump	Participating_in_sports&Exercise&Recreation	Sports, Exercise, and Recreation	Participating in Sports, Exercise, or Recreation	Playing sports	195	1	True	True	True	True	0.7758644999994431
video_on	action	1	eeg	3	e9OgBaoOFso	Wakeboarding	Participating_in_sports&Exercise&Recreation	Sports, Exercise, and Recreation	Participating in Sports, Exercise, or Recreation	Participating in water sports	385	1	True	True	True	True	0.7009336000191979
video_on	action	1	eeg	3	-n3-0P6SaMo	Playing racquetball	Participating_in_sports&Exercise&Recreation	Sports, Exercise, and Recreation	Participating in Sports, Exercise, or Recreation	Playing racquet sports	253	1	True	True	True	True	0.7356863000022713
video_on	action	1	eeg	3	K2KwoOn5Nus	Tumbling	Participating_in_sports&Exercise&Recreation	Sports, Exercise, and Recreation	Participating in Sports, Exercise, or Recreation	Doing gymnastics	258	1	True	True	True	True	0.6607210999936797
video_on	action	1	eeg	3	UT3Ic6j0vGw	Skiing	Participating_in_sports&Exercise&Recreation	Sports, Exercise, and Recreation	Participating in Sports, Exercise, or Recreation	Skiing, ice skating, snowboarding	369	1	True	True	True	True	0.6866720999823883
