event_name	task	subject	session	run	video_id	class_name	raw_superclass_name	superclass_level0	superclass_level1	superclass_level2	class_id	superclass_id	is_resp	stim_is_sports	resp_is_sports	resp_is_right	resp_time
video_on	action	11	meg	1	WK2nhbblsf8	Playing guitarra	Arts&Entertainment	Socializing, Relaxing, and Leisure	Arts and Entertainment	Playing musical instruments	251	2	True	False	False	True	0.2130980573274428
video_on	action	11	meg	1	GpWDd4UFpDk	Surfing	Participating_in_sports&Exercise&Recreation	Sports, Exercise, and Recreation	Participating in Sports, Exercise, or Recreation	Participating in water sports	376	1	True	True	True	True	0.1327996305044507
video_on	action	11	meg	1	ZbuTOriD3ss	Futsal	Participating_in_sports&Exercise&Recreation	Sports, Exercise, and Recreation	Participating in Sports, Exercise, or Recreation	Playing soccer	315	1	True	True	True	True	0.4230793264141539
video_on	action	11	meg	1	W7mcYclHfMI	Hammer throw	Participating_in_sports&Exercise&Recreation	Sports, Exercise, and Recreation	Participating in Sports, Exercise, or Recreation	Playing sports	224	1	True	True	True	True	0.3118753405433381
video_on	action	11	meg	1	m1WUBNpGsZo	Arm wrestling	Participating_in_sports&Exercise&Recreation	Sports, Exercise, and Recreation	Participating in Sports, Exercise, or Recreation	Wrestling	271	1	True	True	True	True	0.3027480563468998
video_on	action	11	meg	1	4_2j81MRpwQ	Playing violin	Arts&Entertainment	Socializing, Relaxing, and Leisure	Arts and Entertainment	Playing musical instruments	234	2	True	False	False	True	0.8402945629059104
video_on	action	11	meg	1	UOMldYt_pX8	Playing kickball	Participating_in_sports&Exercise&Recreation	Sports, Exercise, and Recreation	Participating in Sports, Exercise, or Recreation	Playing sports	257	1	True	True	True	True	0.3922555736207869
video_on	action	11	meg	1	aHNpu0N1PCc	Playing bagpipes	Arts&Entertainment	Socializing, Relaxing, and Leisure	Arts and Entertainment	Playing musical instruments	136	2	True	False	False	True	0.5655562448228011
video_on	action	11	meg	1	3KcpGbS233Q	Skiing	Participating_in_sports&Exercise&Recreation	Sports, Exercise, and Recreation	Participating in Sports, Exercise, or Recreation	Skiing, ice skating, snowboarding	369	1	True	True	True	True	0.4567047171294689
video_on	action	11	meg	1	txdQr4ZE9Zc	Hurling	Participating_in_sports&Exercise&Recreation	Sports, Exercise, and Recreation	Participating in Sports, Exercise, or Recreation	Playing sports	323	1	True	True	True	True	0.3658931296376977
video_on	action	11	meg	1	4TsQhW2a0jE	Rollerblading	Participating_in_sports&Exercise&Recreation	Sports, Exercise, and Recreation	Participating in Sports, Exercise, or Recreation	Playing sports	359	1	True	True	False	False	0.6787561826495221
video_on	action	11	meg	1	fio7NfQITBM	Fixing the roof	Exterior_maintenance&Repair&Decoration	Household Activities	Exterior Maintenance, Repair, & Decoration	Exterior repair, improvements, & decoration	311	12	True	False	False	True	0.7983723271463532
video_on	action	11	meg	1	kCyrHG8W9fs	Spread mulch	Lawn&Garden&Houseplants	Household Activities	Lawn, Garden, and Houseplants	Lawn, garden, and houseplant care	374	9	True	False	False	True	0.4859750566392904
video_on	action	11	meg	1	EdUXMn6k3vo	Playing saxophone	Arts&Entertainment	Socializing, Relaxing, and Leisure	Arts and Entertainment	Playing musical instruments	109	2	True	False	False	True	0.3594177567865699
video_on	action	11	meg	1	umGfiv9aXco	Canoeing	Participating_in_sports&Exercise&Recreation	Sports, Exercise, and Recreation	Participating in Sports, Exercise, or Recreation	Boating	292	1	True	True	True	True	0.3369805038528284
video_on	action	11	meg	1	bFZNVwm0wZk	Vacuuming floor	Housework	Household Activities	Housework	Interior cleaning	160	6	True	False	False	True	0.005096439315821
video_on	action	11	meg	1	XxJ7Yd7yDRA	Javelin throw	Participating_in_sports&Exercise&Recreation	Sports, Exercise, and Recreation	Participating in Sports, Exercise, or Recreation	Playing sports	116	1	True	True	True	True	0.7999725299887359
video_on	action	11	meg	1	w3TvUZ0RWN0	Dodgeball	Participating_in_sports&Exercise&Recreation	Sports, Exercise, and Recreation	Participating in Sports, Exercise, or Recreation	Playing sports	161	1	True	True	True	True	0.4479508437943877
video_on	action	11	meg	1	8PnL_DOc758	Croquet	Participating_in_sports&Exercise&Recreation	Sports, Exercise, and Recreation	Participating in Sports, Exercise, or Recreation	Playing sports	299	1	True	True	True	True	0.5289692260557786
video_on	action	11	meg	1	RJkMdp5ZV8E	Longboarding	Participating_in_sports&Exercise&Recreation	Sports, Exercise, and Recreation	Participating in Sports, Exercise, or Recreation	Playing sports	331	1	True	True	True	True	0.4003142447036225
video_on	action	11	meg	1	lJM_oM7HDO0	Tai chi	Participating_in_sports&Exercise&Recreation	Sports, Exercise, and Recreation	Participating in Sports, Exercise, or Recreation	Participating in martial arts	263	1	True	True	True	True	0.4100253418291686
video_on	action	11	meg	1	XgNMnQFBQaE	Walking the dog	Animals&Pets	Household Activities	Animals and Pets	Walking / exercising / playing with animals	221	8	True	False	False	True	0.902537654270418
video_on	action	11	meg	1	2SqHjqJqVJs	Getting a haircut	Grooming	Personal Care	Grooming	Washing, dressing and grooming	208	4	True	False	False	True	0.7275751991110155
video_on	action	11	meg	1	kesnehl1V1c	Swinging at the playground	Arts&Entertainment	Socializing, Relaxing, and Leisure	Arts and Entertainment	Park activities	378	2	True	False	False	True	0.7929109292890644
video_on	action	11	meg	1	jyNlwUNbVK8	Snow tubing	Participating_in_sports&Exercise&Recreation	Sports, Exercise, and Recreation	Participating in Sports, Exercise, or Recreation	Skiing, ice skating, snowboarding	372	1	True	True	True	True	0.4505088741716463
video_on	action	11	meg	1	wf7sYzy6C1M	Laying tile	Interior_maintenance&Repair&Decoration	Household Activities	Interior Maintenance, Repair, & Decoration	Interior arrangement, decoration, & repairs	330	7	True	False	False	True	0.6891531241126359
video_on	action	11	meg	1	KrNKXZxWgho	Doing karate	Participating_in_sports&Exercise&Recreation	Sports, Exercise, and Recreation	Participating in Sports, Exercise, or Recreation	Participating in martial arts	99	1	True	True	True	True	0.8035744203079958
video_on	action	11	meg	1	7BcBK2GcjGc	Spinning	Participating_in_sports&Exercise&Recreation	Sports, Exercise, and Recreation	Participating in Sports, Exercise, or Recreation	Using cardiovascular equipment	117	1	True	True	True	True	0.3449169183440972
video_on	action	11	meg	1	FzJH6SD2Tfs	Playing field hockey	Participating_in_sports&Exercise&Recreation	Sports, Exercise, and Recreation	Participating in Sports, Exercise, or Recreation	Playing hockey	94	1	True	True	True	True	0.4257052771135932
video_on	action	11	meg	1	vua2-PCYsEY	Archery	Participating_in_sports&Exercise&Recreation	Sports, Exercise, and Recreation	Participating in Sports, Exercise, or Recreation	Playing sports	250	1	True	True	True	True	0.4837533073441591
video_on	action	11	meg	1	ZXnn755C9AM	Blow-drying hair	Grooming	Personal Care	Grooming	Washing, dressing and grooming oneself	281	4	True	False	False	True	0.8334780790901277
video_on	action	11	meg	1	o3VADKuIneg	Painting furniture	Interior_maintenance&Repair&Decoration	Household Activities	Interior Maintenance, Repair, & Decoration	Building and repairing furniture	337	7	True	False	False	True	0.8170202296896605
video_on	action	11	meg	1	X2xQOidJ4xM	Baton twirling	Participating_in_sports&Exercise&Recreation	Sports, Exercise, and Recreation	Participating in Sports, Exercise, or Recreation	Playing sports	277	1	True	True	True	True	0.3945416208152892
video_on	action	11	meg	1	6P-BW85y5Gc	Shot put	Participating_in_sports&Exercise&Recreation	Sports, Exercise, and Recreation	Participating in Sports, Exercise, or Recreation	Playing sports	169	1	True	True	True	True	0.9757020320248556
video_on	action	11	meg	1	YAPucHDlu2I	Rope skipping	Participating_in_sports&Exercise&Recreation	Sports, Exercise, and Recreation	Participating in Sports, Exercise, or Recreation	Working out	361	1	True	True	True	True	0.6253243195387768
video_on	action	11	meg	1	eifY17JjZIU	Using the rowing machine	Participating_in_sports&Exercise&Recreation	Sports, Exercise, and Recreation	Participating in Sports, Exercise, or Recreation	Using cardiovascular equipment	384	1	True	True	True	True	0.0537135060294531
video_on	action	11	meg	1	FamY0Bs6PhQ	Making an omelette	Food&Drink_prep.&Presentation&Clean-up	Eating and drinking Activities	Food & Drink Prep., Presentation, & Clean-up	Food and drink preparation	334	5	True	False	False	True	0.6903910852270201
video_on	action	11	meg	1	P620i815viQ	Starting a campfire	Participating_in_sports&Exercise&Recreation	Sports, Exercise, and Recreation	Participating in Sports, Exercise, or Recreation	Playing sports	153	1	True	True	False	False	0.0050952318415511
video_on	action	11	meg	1	uOoG2rdc-Mw	Plastering	Interior_maintenance&Repair&Decoration	Household Activities	Interior Maintenance, Repair, & Decoration	Interior arrangement, decoration, & repairs	340	7	True	False	False	True	0.5307417956064455
video_on	action	11	meg	1	QdvC8Xt-ym0	Playing polo	Participating_in_sports&Exercise&Recreation	Sports, Exercise, and Recreation	Participating in Sports, Exercise, or Recreation	Participating in equestrian sports	75	1	True	True	True	True	0.4353647547832224
video_on	action	11	meg	1	JVFTdhYeM_o	Using the monkey bar	Arts&Entertainment	Socializing, Relaxing, and Leisure	Arts and Entertainment	Park activities	383	2	True	False	True	False	0.3069630407699151
video_on	action	11	meg	1	XjKUQzWI7n4	Decorating the Christmas tree	Interior_maintenance&Repair&Decoration	Household Activities	Interior Maintenance, Repair, & Decoration	Interior arrangement, decoration, & repairs	302	7	True	False	False	True	0.9717037889058702
video_on	action	11	meg	1	aiLiSaJtONQ	Brushing hair	Grooming	Personal Care	Grooming	Washing, dressing and grooming oneself	125	4	True	False	False	True	0.0050946281116921
video_on	action	11	meg	1	MbIwgB8ifq4	Playing lacrosse	Participating_in_sports&Exercise&Recreation	Sports, Exercise, and Recreation	Participating in Sports, Exercise, or Recreation	Playing racquet sports	209	1	True	True	True	True	0.3734193053824128
video_on	action	11	meg	1	mmJroQr6lMI	Playing harmonica	Arts&Entertainment	Socializing, Relaxing, and Leisure	Arts and Entertainment	Playing musical instruments	100	2	True	False	False	True	0.6122114706813591
video_on	action	11	meg	1	HNoj5HKwtmc	Playing drums	Arts&Entertainment	Socializing, Relaxing, and Leisure	Arts and Entertainment	Playing musical instruments	346	2	True	False	False	True	0.4124188540736213
video_on	action	11	meg	1	UavdtMyGwtY	Braiding hair	Grooming	Personal Care	Grooming	Washing, dressing and grooming oneself	285	4	True	False	False	True	0.8365936598711414
video_on	action	11	meg	1	N2vAS2SYjRg	Playing water polo	Participating_in_sports&Exercise&Recreation	Sports, Exercise, and Recreation	Participating in Sports, Exercise, or Recreation	Participating in water sports	130	1	True	True	True	True	0.5321500103309518
video_on	action	11	meg	1	o79vLIyWc7k	Using the balance beam	Participating_in_sports&Exercise&Recreation	Sports, Exercise, and Recreation	Participating in Sports, Exercise, or Recreation	Doing gymnastics	180	1	True	True	False	False	0.6362591899960535
video_on	action	11	meg	1	aTcgisqWKRM	Brushing teeth	Grooming	Personal Care	Grooming	Washing, dressing and grooming oneself	148	4	True	False	False	True	0.3243367580143967
video_on	action	11	meg	1	XlK_J99wqmA	Cleaning shoes	Housework	Household Activities	Housework	Sewing, repairing, & maintaining textiles	134	6	True	False	False	True	0.0053506122640101
video_on	action	11	meg	1	CErVtfN1S6Q	Raking leaves	Lawn&Garden&Houseplants	Household Activities	Lawn, Garden, and Houseplants	Lawn, garden, and houseplant care	354	9	True	False	False	True	0.8554586055834079
video_on	action	11	meg	1	wX_y4Zo5bOY	Building sandcastles	Arts&Entertainment	Socializing, Relaxing, and Leisure	Arts and Entertainment	Beach activities	286	2	True	False	False	True	0.9016118247818669
video_on	action	11	meg	1	gGKq91w8CQA	Using parallel bars	Participating_in_sports&Exercise&Recreation	Sports, Exercise, and Recreation	Participating in Sports, Exercise, or Recreation	Doing gymnastics	88	1	True	True	True	True	0.4289506611676188
video_on	action	11	meg	1	jUMp8wqoSz0	Mowing the lawn	Lawn&Garden&Houseplants	Household Activities	Lawn, Garden, and Houseplants	Lawn, garden, and houseplant care	218	9	True	False	False	True	0.9657968336978228
video_on	action	11	meg	1	P_e4BlO947E	Using uneven bars	Participating_in_sports&Exercise&Recreation	Sports, Exercise, and Recreation	Participating in Sports, Exercise, or Recreation	Doing gymnastics	192	1	True	True	True	True	0.3674776353436755
video_on	action	11	meg	1	0MAFeuu0MMU	Playing badminton	Participating_in_sports&Exercise&Recreation	Sports, Exercise, and Recreation	Participating in Sports, Exercise, or Recreation	Playing racquet sports	268	1	True	True	True	True	0.3895450998534215
video_on	action	11	meg	1	E4x8NNhtngc	BMX	Participating_in_sports&Exercise&Recreation	Sports, Exercise, and Recreation	Participating in Sports, Exercise, or Recreation	Biking	274	1	True	True	False	False	0.934276369313011
video_on	action	11	meg	1	nk_Ml5TtKs0	Shoveling snow	Exterior_maintenance&Repair&Decoration	Household Activities	Exterior Maintenance, Repair, & Decoration	Exterior cleaning	183	12	True	False	True	False	0.0053451786370715
video_on	action	11	meg	1	0oRv537diok	Making a cake	Food&Drink_prep.&Presentation&Clean-up	Eating and drinking Activities	Food & Drink Prep., Presentation, & Clean-up	Food and drink preparation	332	5	True	False	False	True	0.0050949299766216
video_on	action	11	meg	1	zqaOmtPNkPs	Powerbocking	Participating_in_sports&Exercise&Recreation	Sports, Exercise, and Recreation	Participating in Sports, Exercise, or Recreation	Playing sports	350	1	True	True	True	True	0.6082883927156217
video_on	action	11	meg	1	-DF-YBnO7dU	Playing piano	Arts&Entertainment	Socializing, Relaxing, and Leisure	Arts and Entertainment	Playing musical instruments	197	2	True	False	False	True	0.4929569641681155
video_on	action	11	meg	1	IBBZnpG0K_w	Chopping wood	Interior_maintenance&Repair&Decoration	Household Activities	Interior Maintenance, Repair, & Decoration	Heating and cooling	110	7	True	False	False	True	0.942243272496853
video_on	action	11	meg	1	pUXHQXndpzo	Playing rubik cube	Relaxing&Leisure	Socializing, Relaxing, and Leisure	Relaxing and Leisure	Playing games	349	3	True	False	False	True	0.8864348017814336
video_on	action	11	meg	1	6t6Pjy5-Xd0	Preparing salad	Food&Drink_prep.&Presentation&Clean-up	Eating and drinking Activities	Food & Drink Prep., Presentation, & Clean-up	Food and drink preparation	96	5	True	False	False	True	0.8873388967622304
video_on	action	11	meg	1	w6KpAOQOWQs	Beach soccer	Participating_in_sports&Exercise&Recreation	Sports, Exercise, and Recreation	Participating in Sports, Exercise, or Recreation	Playing soccer	278	1	True	True	True	True	0.2970617667451734
video_on	action	11	meg	1	175bG8Hi8IA	Drinking coffee	Food&Drink_prep.&Presentation&Clean-up	Eating and drinking Activities	Food & Drink Prep., Presentation, & Clean-up	Eating and Drinking	68	5	True	False	False	True	0.9051928861736088
video_on	action	11	meg	1	vitxZhWX5xQ	Doing kickboxing	Participating_in_sports&Exercise&Recreation	Sports, Exercise, and Recreation	Participating in Sports, Exercise, or Recreation	Participating in martial arts	70	1	True	True	True	True	0.377359891688684
video_on	action	11	meg	1	-2W0KSqdagA	Cheerleading	Arts&Entertainment	Socializing, Relaxing, and Leisure	Arts and Entertainment	Dancing	140	2	True	False	True	False	0.8415071671042824
video_on	action	11	meg	1	mJ45d8CmklE	Bungee jumping	Participating_in_sports&Exercise&Recreation	Sports, Exercise, and Recreation	Participating in Sports, Exercise, or Recreation	Playing sports	154	1	True	True	False	False	1.008038144063903
video_on	action	11	meg	1	CIL8OAgNl1Q	Windsurfing	Participating_in_sports&Exercise&Recreation	Sports, Exercise, and Recreation	Participating in Sports, Exercise, or Recreation	Participating in water sports	237	1	True	True	True	True	0.4096842308645136
video_on	action	11	meg	1	JTEaLUjqrZo	Mooping floor	Housework	Household Activities	Housework	Interior cleaning	335	6	True	False	False	True	0.4720094303629594
video_on	action	11	meg	1	Z3-HsTuTi6U	Playing pool	Relaxing&Leisure	Socializing, Relaxing, and Leisure	Relaxing and Leisure	Playing games	348	3	True	False	False	True	0.7678477256558836
video_on	action	11	meg	1	wfWUHKUt-Q0	Snowboarding	Participating_in_sports&Exercise&Recreation	Sports, Exercise, and Recreation	Participating in Sports, Exercise, or Recreation	Skiing, ice skating, snowboarding	373	1	True	True	False	False	0.0050952318415511
video_on	action	11	meg	1	RDgh7UogSVM	Zumba	Participating_in_sports&Exercise&Recreation	Sports, Exercise, and Recreation	Participating in Sports, Exercise, or Recreation	Doing aerobics	69	1	True	True	True	True	0.005345480502001
video_on	action	11	meg	1	6rkcZQ5_kd0	Playing ice hockey	Participating_in_sports&Exercise&Recreation	Sports, Exercise, and Recreation	Participating in Sports, Exercise, or Recreation	Playing hockey	347	1	True	True	False	False	0.5684762150485767
video_on	action	11	meg	1	Gox90ljCfeE	Welding	Appliances&Tools&Toys	Household Activities	Appliances, Tools, and Toys	Appliance, tool, and toy set-up, repair, & maintenance (by self)	388	10	True	False	False	True	0.8807639074366307
video_on	action	11	meg	1	Qw2xSqEVXZ4	Cleaning windows	Housework	Household Activities	Housework	Interior cleaning	143	6	True	False	False	True	0.8154994181386428
video_on	action	11	meg	1	2RJIwiocC2I	Kneeling	Participating_in_sports&Exercise&Recreation	Sports, Exercise, and Recreation	Participating in Sports, Exercise, or Recreation	Working out	328	1	True	True	True	True	0.5928982508339686
video_on	action	11	meg	1	BQpTOOJM-5Y	Shaving	Grooming	Personal Care	Grooming	Washing, dressing and grooming oneself	190	4	True	False	False	True	0.00509704304568
video_on	action	11	meg	1	RrMv1B1-Jzs	Drum corps	Arts&Entertainment	Socializing, Relaxing, and Leisure	Arts and Entertainment	Playing musical instruments	307	2	True	False	False	True	0.3372470533795422
video_on	action	11	meg	1	Mxkj8amzAIM	Doing fencing	Participating_in_sports&Exercise&Recreation	Sports, Exercise, and Recreation	Participating in Sports, Exercise, or Recreation	Fencing	309	1	True	True	False	False	0.8095363155007362
video_on	action	11	meg	1	24FSDO5108A	Playing accordion	Arts&Entertainment	Socializing, Relaxing, and Leisure	Arts and Entertainment	Playing musical instruments	267	2	True	False	False	True	0.0051073065696982
video_on	action	11	meg	1	HwdBJcdTH5A	Rock-paper-scissors	Relaxing&Leisure	Socializing, Relaxing, and Leisure	Relaxing and Leisure	Playing games	358	3	True	False	True	False	0.417754674796015
video_on	action	11	meg	1	EkfcBMOoI9M	Doing crunches	Participating_in_sports&Exercise&Recreation	Sports, Exercise, and Recreation	Participating in Sports, Exercise, or Recreation	Working out	305	1	True	True	True	True	3.1615510587289464
video_on	action	11	meg	1	9X87QNDxxsw	Triple jump	Participating_in_sports&Exercise&Recreation	Sports, Exercise, and Recreation	Participating in Sports, Exercise, or Recreation	Playing sports	155	1	True	True	True	True	0.5882772537734127
video_on	action	11	meg	1	fsyMiHRW3z4	Hopscotch	Relaxing&Leisure	Socializing, Relaxing, and Leisure	Relaxing and Leisure	Playing games	241	3	False	False	False	True	0.0
video_on	action	11	meg	1	wBb5hbEr9tw	Bathing dog	Animals&Pets	Household Activities	Animals and Pets	Care for animals and pets (not veterinary care)	90	8	True	False	True	False	0.0050973449251614
video_on	action	11	meg	1	F2KLCKfyHBA	Capoeira	Participating_in_sports&Exercise&Recreation	Sports, Exercise, and Recreation	Participating in Sports, Exercise, or Recreation	Participating in martial arts	294	1	True	True	True	True	0.7245462544960901
video_on	action	11	meg	1	nf1xHFJtZ7I	Discus throw	Participating_in_sports&Exercise&Recreation	Sports, Exercise, and Recreation	Participating in Sports, Exercise, or Recreation	Playing sports	92	1	False	True	False	False	0.0
video_on	action	11	eeg	1	Jx-R6LssX0c	Triple jump	Participating_in_sports&Exercise&Recreation	Sports, Exercise, and Recreation	Participating in Sports, Exercise, or Recreation	Playing sports	155	1	False	True	False	False	0.0
video_on	action	11	eeg	1	yAUFCiTO6oo	Grooming horse	Animals&Pets	Household Activities	Animals and Pets	Walking / exercising / playing with animals	95	8	True	False	True	False	0.0050711000003502
video_on	action	11	eeg	1	_Ry-RE_unC4	Elliptical trainer	Participating_in_sports&Exercise&Recreation	Sports, Exercise, and Recreation	Participating in Sports, Exercise, or Recreation	Using cardiovascular equipment	308	1	True	True	True	True	0.943056300000535
video_on	action	11	eeg	1	BrIAU34oYCs	Swinging at the playground	Arts&Entertainment	Socializing, Relaxing, and Leisure	Arts and Entertainment	Park activities	378	2	True	False	False	True	0.8375109000007797
video_on	action	11	eeg	1	y473vyH0lCM	Hopscotch	Relaxing&Leisure	Socializing, Relaxing, and Leisure	Relaxing and Leisure	Playing games	241	3	True	False	False	True	0.8195789000001241
video_on	action	11	eeg	1	2g-Ec4DJbCY	Brushing hair	Grooming	Personal Care	Grooming	Washing, dressing and grooming oneself	125	4	True	False	False	True	0.9124688000010792
video_on	action	11	eeg	1	m2cfODI0V_M	Kayaking	Participating_in_sports&Exercise&Recreation	Sports, Exercise, and Recreation	Participating in Sports, Exercise, or Recreation	Participating in water sports	254	1	False	True	False	False	0.0
video_on	action	11	eeg	1	JCS4VPcSrIg	Tai chi	Participating_in_sports&Exercise&Recreation	Sports, Exercise, and Recreation	Participating in Sports, Exercise, or Recreation	Participating in martial arts	263	1	True	True	True	True	0.0050930999987031
video_on	action	11	eeg	1	4IZ30BQDJ-o	Paintball	Participating_in_sports&Exercise&Recreation	Sports, Exercise, and Recreation	Participating in Sports, Exercise, or Recreation	Playing sports	141	1	True	True	True	True	0.579437100001087
video_on	action	11	eeg	1	YOD_R470UPs	Polishing forniture	Housework	Household Activities	Housework	Interior cleaning	156	6	True	False	False	True	0.8916355000001204
video_on	action	11	eeg	1	PgUnHSpJ6Bw	Using the rowing machine	Participating_in_sports&Exercise&Recreation	Sports, Exercise, and Recreation	Participating in Sports, Exercise, or Recreation	Using cardiovascular equipment	384	1	True	True	True	True	0.9025705000003654
video_on	action	11	eeg	1	B4-G_QAu-po	Playing racquetball	Participating_in_sports&Exercise&Recreation	Sports, Exercise, and Recreation	Participating in Sports, Exercise, or Recreation	Playing racquet sports	253	1	True	True	True	True	0.9860064000004058
video_on	action	11	eeg	1	50BpWno7itc	Longboarding	Participating_in_sports&Exercise&Recreation	Sports, Exercise, and Recreation	Participating in Sports, Exercise, or Recreation	Playing sports	331	1	True	True	True	True	0.9295516999991378
video_on	action	11	eeg	1	ejUU2esWW9k	Playing badminton	Participating_in_sports&Exercise&Recreation	Sports, Exercise, and Recreation	Participating in Sports, Exercise, or Recreation	Playing racquet sports	268	1	True	True	True	True	0.8221968999987439
video_on	action	11	eeg	1	nd9A27JIxB4	Decorating the Christmas tree	Interior_maintenance&Repair&Decoration	Household Activities	Interior Maintenance, Repair, & Decoration	Interior arrangement, decoration, & repairs	302	7	True	False	False	True	0.8696636999993643
video_on	action	11	eeg	1	9XfITFpENNk	Brushing teeth	Grooming	Personal Care	Grooming	Washing, dressing and grooming oneself	148	4	True	False	False	True	0.9258922999997594
video_on	action	11	eeg	1	cHHyEBOTGiw	Drum corps	Arts&Entertainment	Socializing, Relaxing, and Leisure	Arts and Entertainment	Playing musical instruments	307	2	True	False	False	True	0.9788883999990504
video_on	action	11	eeg	1	LyA3kbb0ggg	Chopping wood	Interior_maintenance&Repair&Decoration	Household Activities	Interior Maintenance, Repair, & Decoration	Heating and cooling	110	7	False	False	False	True	0.0
video_on	action	11	eeg	1	prSACsCL8Xg	Cutting the grass	Lawn&Garden&Houseplants	Household Activities	Lawn, Garden, and Houseplants	Lawn, garden, and houseplant care	301	9	True	False	False	True	0.0050692999993771
video_on	action	11	eeg	1	LIoDJU_HwYg	Beer pong	Relaxing&Leisure	Socializing, Relaxing, and Leisure	Relaxing and Leisure	Playing games	280	3	True	False	False	True	0.8034783999992214
video_on	action	11	eeg	1	fDVVwDesG6o	Shoveling snow	Exterior_maintenance&Repair&Decoration	Household Activities	Exterior Maintenance, Repair, & Decoration	Exterior cleaning	183	12	True	False	False	True	0.8347059000006993
video_on	action	11	eeg	1	9wR5GOfGaPo	Cleaning sink	Interior_maintenance&Repair&Decoration	Household Activities	Interior Maintenance, Repair, & Decoration	Interior arrangement, decoration, & repairs	297	7	True	False	False	True	0.9786383999999088
video_on	action	11	eeg	1	uCdy8cnfWTA	Ice fishing	Participating_in_sports&Exercise&Recreation	Sports, Exercise, and Recreation	Participating in Sports, Exercise, or Recreation	Fishing	324	1	True	True	False	False	0.8929514000010386
video_on	action	11	eeg	1	lTSSacV4SyA	Playing saxophone	Arts&Entertainment	Socializing, Relaxing, and Leisure	Arts and Entertainment	Playing musical instruments	109	2	True	False	False	True	0.8012428999991243
video_on	action	11	eeg	1	SMupR94u2F0	Windsurfing	Participating_in_sports&Exercise&Recreation	Sports, Exercise, and Recreation	Participating in Sports, Exercise, or Recreation	Participating in water sports	237	1	True	True	True	True	0.8282779000001028
video_on	action	11	eeg	1	AvyyomobYPo	Playing violin	Arts&Entertainment	Socializing, Relaxing, and Leisure	Arts and Entertainment	Playing musical instruments	234	2	True	False	False	True	0.005071499999758
video_on	action	11	eeg	1	1qrLBG5dWnc	Playing ice hockey	Participating_in_sports&Exercise&Recreation	Sports, Exercise, and Recreation	Participating in Sports, Exercise, or Recreation	Playing hockey	347	1	True	True	True	True	0.9843676000000414
video_on	action	11	eeg	1	uX-UwKfRvJY	Doing crunches	Participating_in_sports&Exercise&Recreation	Sports, Exercise, and Recreation	Participating in Sports, Exercise, or Recreation	Working out	305	1	False	True	False	False	0.0
video_on	action	11	eeg	1	F2Igw6lvqwk	Putting on shoes	Grooming	Personal Care	Grooming	Washing, dressing and grooming oneself	352	4	True	False	True	False	0.0050781999998434
video_on	action	11	eeg	1	1mxcyByOfIY	Snatch	Participating_in_sports&Exercise&Recreation	Sports, Exercise, and Recreation	Participating in Sports, Exercise, or Recreation	Weightlifting	79	1	True	True	True	True	0.9032984000004944
video_on	action	11	eeg	1	UV-4Lp9LSeo	Painting furniture	Interior_maintenance&Repair&Decoration	Household Activities	Interior Maintenance, Repair, & Decoration	Building and repairing furniture	337	7	True	False	False	True	0.8469146999996156
video_on	action	11	eeg	1	f0Lla4H7ry4	Canoeing	Participating_in_sports&Exercise&Recreation	Sports, Exercise, and Recreation	Participating in Sports, Exercise, or Recreation	Boating	292	1	True	True	True	True	0.7128329000006488
video_on	action	11	eeg	1	kTOw0nmKO_g	Preparing pasta	Food&Drink_prep.&Presentation&Clean-up	Eating and drinking Activities	Food & Drink Prep., Presentation, & Clean-up	Food and drink preparation	186	5	True	False	False	True	0.8573993000009068
video_on	action	11	eeg	1	FEBXm9eNmZc	Powerbocking	Participating_in_sports&Exercise&Recreation	Sports, Exercise, and Recreation	Participating in Sports, Exercise, or Recreation	Playing sports	350	1	True	True	False	False	0.9462346000000252
video_on	action	11	eeg	1	J8WxSDLZwu0	Hurling	Participating_in_sports&Exercise&Recreation	Sports, Exercise, and Recreation	Participating in Sports, Exercise, or Recreation	Playing sports	323	1	True	True	True	True	0.974886800000604
video_on	action	11	eeg	1	9K4dF3q_7pM	Painting fence	Exterior_maintenance&Repair&Decoration	Household Activities	Exterior Maintenance, Repair, & Decoration	Painting fence	336	12	True	False	False	True	0.930638400001044
video_on	action	11	eeg	1	7W6vbzF1cDg	Table soccer	Relaxing&Leisure	Socializing, Relaxing, and Leisure	Relaxing and Leisure	Playing games	379	3	True	False	False	True	0.8700357999987318
video_on	action	11	eeg	1	9Xw6vmkb6Qc	Doing kickboxing	Participating_in_sports&Exercise&Recreation	Sports, Exercise, and Recreation	Participating in Sports, Exercise, or Recreation	Participating in martial arts	70	1	True	True	True	True	0.7948847000006936
video_on	action	11	eeg	1	cDxUD6IDtnw	Skateboarding	Participating_in_sports&Exercise&Recreation	Sports, Exercise, and Recreation	Participating in Sports, Exercise, or Recreation	Playing sports	176	1	True	True	True	True	0.7291038999992452
video_on	action	11	eeg	1	lGLQSVbODqw	Spread mulch	Lawn&Garden&Houseplants	Household Activities	Lawn, Garden, and Houseplants	Lawn, garden, and houseplant care	374	9	True	False	False	True	0.7065012000002753
video_on	action	11	eeg	1	oT_4b18Nq6Y	Playing field hockey	Participating_in_sports&Exercise&Recreation	Sports, Exercise, and Recreation	Participating in Sports, Exercise, or Recreation	Playing hockey	94	1	True	True	True	True	0.8513116000012815
video_on	action	11	eeg	1	uD69tUkEwv8	Slacklining	Relaxing&Leisure	Socializing, Relaxing, and Leisure	Relaxing and Leisure	Playing games	371	3	True	False	False	True	0.9839372999995248
video_on	action	11	eeg	1	F0Gt2DJ7OTc	Plataform diving	Participating_in_sports&Exercise&Recreation	Sports, Exercise, and Recreation	Participating in Sports, Exercise, or Recreation	Participating in water sports	233	1	True	True	True	True	0.8979183999999805
video_on	action	11	eeg	1	6JuUYpo85Kc	Doing motocross	Participating_in_sports&Exercise&Recreation	Sports, Exercise, and Recreation	Participating in Sports, Exercise, or Recreation	Playing sports	243	1	True	True	True	True	0.6833490999997593
video_on	action	11	eeg	1	dQqApCGd5Ss	Doing step aerobics	Participating_in_sports&Exercise&Recreation	Sports, Exercise, and Recreation	Participating in Sports, Exercise, or Recreation	Doing aerobics	230	1	True	True	False	False	0.8574114000002737
video_on	action	11	eeg	1	LVGd0zAy_-E	Making an omelette	Food&Drink_prep.&Presentation&Clean-up	Eating and drinking Activities	Food & Drink Prep., Presentation, & Clean-up	Food and drink preparation	334	5	True	False	False	True	0.8190147000004799
video_on	action	11	eeg	1	yHTJ62IbGrw	Braiding hair	Grooming	Personal Care	Grooming	Washing, dressing and grooming oneself	285	4	True	False	False	True	0.7992866000004142
video_on	action	11	eeg	1	YFgTbCguyvc	Javelin throw	Participating_in_sports&Exercise&Recreation	Sports, Exercise, and Recreation	Participating in Sports, Exercise, or Recreation	Playing sports	116	1	True	True	True	True	0.7379585999988194
video_on	action	11	eeg	1	uGSxRtczhPI	Shuffleboard	Relaxing&Leisure	Socializing, Relaxing, and Leisure	Relaxing and Leisure	Playing games	368	3	True	False	False	True	0.938783900000999
video_on	action	11	eeg	1	Zhv6KuJ1Fnk	Rock climbing	Participating_in_sports&Exercise&Recreation	Sports, Exercise, and Recreation	Participating in Sports, Exercise, or Recreation	Climbing, spelunking, caving	188	1	True	True	True	True	0.7658683999998175
video_on	action	11	eeg	1	r402e4Qwmss	Snow tubing	Participating_in_sports&Exercise&Recreation	Sports, Exercise, and Recreation	Participating in Sports, Exercise, or Recreation	Skiing, ice skating, snowboarding	372	1	True	True	True	True	0.9206797999995616
video_on	action	11	eeg	1	67Zla6lHnrM	Carving jack-o-lanterns	Interior_maintenance&Repair&Decoration	Household Activities	Interior Maintenance, Repair, & Decoration	Interior arrangement, decoration, & repairs	295	7	True	False	False	True	0.9757702999995672
video_on	action	11	eeg	1	ktVkXMGWyeU	Archery	Participating_in_sports&Exercise&Recreation	Sports, Exercise, and Recreation	Participating in Sports, Exercise, or Recreation	Playing sports	250	1	True	True	True	True	0.7421548999991501
video_on	action	11	eeg	1	mMDpuD-vblM	Making a cake	Food&Drink_prep.&Presentation&Clean-up	Eating and drinking Activities	Food & Drink Prep., Presentation, & Clean-up	Food and drink preparation	332	5	True	False	False	True	0.9837619000009
video_on	action	11	eeg	1	yT3_O9VU564	Fixing the roof	Exterior_maintenance&Repair&Decoration	Household Activities	Exterior Maintenance, Repair, & Decoration	Exterior repair, improvements, & decoration	311	12	True	False	False	True	0.6695684999995137
video_on	action	11	eeg	1	xtGs5djnesw	Ping-pong	Participating_in_sports&Exercise&Recreation	Sports, Exercise, and Recreation	Participating in Sports, Exercise, or Recreation	Playing racquet sports	119	1	False	True	False	False	0.0
video_on	action	11	eeg	1	uJWhwoWBY_4	Camel ride	Participating_in_sports&Exercise&Recreation	Sports, Exercise, and Recreation	Participating in Sports, Exercise, or Recreation	Playing sports	291	1	True	True	False	False	0.0050729999984469
video_on	action	11	eeg	1	-2h5LVFpoxg	Playing drums	Arts&Entertainment	Socializing, Relaxing, and Leisure	Arts and Entertainment	Playing musical instruments	346	2	True	False	False	True	0.6226294999996753
video_on	action	11	eeg	1	w_H8gJtwc8w	Bungee jumping	Participating_in_sports&Exercise&Recreation	Sports, Exercise, and Recreation	Participating in Sports, Exercise, or Recreation	Playing sports	154	1	False	True	False	False	0.0
video_on	action	11	eeg	1	CpszAEAgLiM	Playing congas	Arts&Entertainment	Socializing, Relaxing, and Leisure	Arts and Entertainment	Playing musical instruments	345	2	True	False	True	False	0.0050812999998015
video_on	action	11	eeg	1	oBtfbuU-kW4	Clean and jerk	Participating_in_sports&Exercise&Recreation	Sports, Exercise, and Recreation	Participating in Sports, Exercise, or Recreation	Weightlifting	84	1	True	True	True	True	0.8005862999998499
video_on	action	11	eeg	1	D37LD2K9upM	Surfing	Participating_in_sports&Exercise&Recreation	Sports, Exercise, and Recreation	Participating in Sports, Exercise, or Recreation	Participating in water sports	376	1	True	True	True	True	0.6740568999994139
video_on	action	11	eeg	1	ppsWiNEn8KA	Cheerleading	Arts&Entertainment	Socializing, Relaxing, and Leisure	Arts and Entertainment	Dancing	140	2	True	False	False	True	0.729020999999193
video_on	action	11	eeg	1	FlUydH1PXDk	High jump	Participating_in_sports&Exercise&Recreation	Sports, Exercise, and Recreation	Participating in Sports, Exercise, or Recreation	Playing sports	195	1	True	True	True	True	0.6433254999992641
video_on	action	11	eeg	1	G7YVUBMVT9E	Using parallel bars	Participating_in_sports&Exercise&Recreation	Sports, Exercise, and Recreation	Participating in Sports, Exercise, or Recreation	Doing gymnastics	88	1	True	True	True	True	1.0744868999991013
video_on	action	11	eeg	1	oNKZ0UlObek	Sharpening knives	Appliances&Tools&Toys	Household Activities	Appliances, Tools, and Toys	Appliance, tool, and toy set-up, repair, & maintenance (by self)	365	10	True	False	False	True	0.7985120000012103
video_on	action	11	eeg	1	ljZsxP3U_UE	Ballet	Arts&Entertainment	Socializing, Relaxing, and Leisure	Arts and Entertainment	Attending arts and entertainment	229	2	True	False	False	True	0.7195963000012853
video_on	action	11	eeg	1	LjlRu2QgaYM	Running a marathon	Participating_in_sports&Exercise&Recreation	Sports, Exercise, and Recreation	Participating in Sports, Exercise, or Recreation	Running	362	1	False	True	False	False	0.0
video_on	action	11	eeg	1	vXT-ERuJKKU	Preparing salad	Food&Drink_prep.&Presentation&Clean-up	Eating and drinking Activities	Food & Drink Prep., Presentation, & Clean-up	Food and drink preparation	96	5	True	False	True	False	0.005067300000519
video_on	action	11	eeg	1	EWixPBdzuHY	Using the balance beam	Participating_in_sports&Exercise&Recreation	Sports, Exercise, and Recreation	Participating in Sports, Exercise, or Recreation	Doing gymnastics	180	1	True	True	True	True	0.6935590000011871
video_on	action	11	eeg	1	nmB5FZbEJ3k	Knitting	Housework	Household Activities	Housework	Sewing, repairing, & maintaining textiles	329	6	True	False	False	True	0.6712537999992492
video_on	action	11	eeg	1	TkrASM5C8ZU	Having an ice cream	Food&Drink_prep.&Presentation&Clean-up	Eating and drinking Activities	Food & Drink Prep., Presentation, & Clean-up	Eating and Drinking	320	5	True	False	False	True	0.7931420999993861
video_on	action	11	eeg	1	erAhxIi2eOw	Hitting a pinata	Relaxing&Leisure	Socializing, Relaxing, and Leisure	Relaxing and Leisure	Playing games	321	3	True	False	False	True	0.7179926999997406
video_on	action	11	eeg	1	UlMYpnpcmeY	Grooming dog	Animals&Pets	Household Activities	Animals and Pets	Care for animals and pets (not veterinary care)	317	8	True	False	False	True	0.9738448999996764
video_on	action	11	eeg	1	zGSo7wfpNGI	Waterskiing	Participating_in_sports&Exercise&Recreation	Sports, Exercise, and Recreation	Participating in Sports, Exercise, or Recreation	Participating in water sports	386	1	True	True	False	False	0.8522069000009651
video_on	action	11	eeg	1	L5v3bVmghUk	Smoking a cigarette	Relaxing&Leisure	Socializing, Relaxing, and Leisure	Relaxing and Leisure	Tobacco and drug use	201	3	True	False	False	True	0.6855231999998068
video_on	action	11	eeg	1	IL42I2cV0BU	Shot put	Participating_in_sports&Exercise&Recreation	Sports, Exercise, and Recreation	Participating in Sports, Exercise, or Recreation	Playing sports	169	1	True	True	True	True	0.9807872000001224
video_on	action	11	eeg	1	DX0zwkK0Yow	Getting a haircut	Grooming	Personal Care	Grooming	Washing, dressing and grooming	208	4	True	False	False	True	0.6117441000005783
video_on	action	11	eeg	1	Hn6aMgpjo04	Getting a tattoo	Grooming	Personal Care	Grooming	Washing, dressing and grooming	187	4	True	False	False	True	0.6919613999998546
video_on	action	11	eeg	1	qsSUdHWzD9g	Doing fencing	Participating_in_sports&Exercise&Recreation	Sports, Exercise, and Recreation	Participating in Sports, Exercise, or Recreation	Fencing	309	1	True	True	True	True	0.715276899998571
video_on	action	11	eeg	1	kXudB8GVjmI	Welding	Appliances&Tools&Toys	Household Activities	Appliances, Tools, and Toys	Appliance, tool, and toy set-up, repair, & maintenance (by self)	388	10	True	False	False	True	0.7353648000007524
video_on	action	11	eeg	1	3W-w607y9XI	Swimming	Participating_in_sports&Exercise&Recreation	Sports, Exercise, and Recreation	Participating in Sports, Exercise, or Recreation	Participating in water sports	377	1	True	True	True	True	0.8553040000006149
video_on	action	11	eeg	1	SvAcMz1dFHc	Doing nails	Grooming	Personal Care	Grooming	Washing, dressing and grooming oneself	167	4	True	False	False	True	0.7128576000013709
video_on	action	11	eeg	1	NSMKdXvJ31M	Snowboarding	Participating_in_sports&Exercise&Recreation	Sports, Exercise, and Recreation	Participating in Sports, Exercise, or Recreation	Skiing, ice skating, snowboarding	373	1	True	True	False	False	0.6930171999993036
video_on	action	11	eeg	1	2ehG7Vkhrjk	Skiing	Participating_in_sports&Exercise&Recreation	Sports, Exercise, and Recreation	Participating in Sports, Exercise, or Recreation	Skiing, ice skating, snowboarding	369	1	True	True	True	True	0.8491070000000036
video_on	action	11	eeg	1	BHou5VZHr2Y	Wakeboarding	Participating_in_sports&Exercise&Recreation	Sports, Exercise, and Recreation	Participating in Sports, Exercise, or Recreation	Participating in water sports	385	1	True	True	True	True	0.5421509000007063
video_on	action	11	eeg	1	x4jJIu9l9bA	Sailing	Participating_in_sports&Exercise&Recreation	Sports, Exercise, and Recreation	Participating in Sports, Exercise, or Recreation	Participating in water sports	240	1	True	True	True	True	0.9828774000015984
video_on	action	11	eeg	1	tQuNPi-Uesw	Bathing dog	Animals&Pets	Household Activities	Animals and Pets	Care for animals and pets (not veterinary care)	90	8	True	False	False	True	0.7363392999995995
video_on	action	11	eeg	1	NlfJmIeqG4o	Playing pool	Relaxing&Leisure	Socializing, Relaxing, and Leisure	Relaxing and Leisure	Playing games	348	3	True	False	True	False	0.8234335999986797
video_on	action	11	eeg	1	k7ECtj4A6oU	Shaving	Grooming	Personal Care	Grooming	Washing, dressing and grooming oneself	190	4	False	False	False	True	0.0
video_on	action	11	meg	2	YNv3fa9k53U	Horseback riding	Participating_in_sports&Exercise&Recreation	Sports, Exercise, and Recreation	Participating in Sports, Exercise, or Recreation	Participating in equestrian sports	175	1	True	True	True	True	0.3549534292978933
video_on	action	11	meg	2	rnsx0cm4Xy8	Kayaking	Participating_in_sports&Exercise&Recreation	Sports, Exercise, and Recreation	Participating in Sports, Exercise, or Recreation	Participating in water sports	254	1	True	True	True	True	0.469860129407607
video_on	action	11	meg	2	1mUhIWYmF58	Plataform diving	Participating_in_sports&Exercise&Recreation	Sports, Exercise, and Recreation	Participating in Sports, Exercise, or Recreation	Participating in water sports	233	1	True	True	True	True	0.6831024796993006
video_on	action	11	meg	2	-zcQ3OtGnNk	Trimming branches or hedges	Lawn&Garden&Houseplants	Household Activities	Lawn, Garden, and Houseplants	Lawn, garden, and houseplant care	381	9	True	False	False	True	0.8667421336867847
video_on	action	11	meg	2	d1K0ugVWq9o	Grooming horse	Animals&Pets	Household Activities	Animals and Pets	Walking / exercising / playing with animals	95	8	True	False	False	True	0.668089069207781
video_on	action	11	meg	2	lkNTe63ulp4	Tug of war	Relaxing&Leisure	Socializing, Relaxing, and Leisure	Relaxing and Leisure	Playing games	382	3	True	False	True	False	0.3417421714257216
video_on	action	11	meg	2	0tHmpaLGW4w	High jump	Participating_in_sports&Exercise&Recreation	Sports, Exercise, and Recreation	Participating in Sports, Exercise, or Recreation	Playing sports	195	1	True	True	True	True	0.4277694512566086
video_on	action	11	meg	2	EYBJkhptFFA	Washing hands	Grooming	Personal Care	Grooming	Washing, dressing and grooming oneself	173	4	True	False	True	False	0.5487189472041791
video_on	action	11	meg	2	fumjHnGKtfg	Throwing darts	Relaxing&Leisure	Socializing, Relaxing, and Leisure	Relaxing and Leisure	Playing games	380	3	True	False	True	False	0.4367611966736149
video_on	action	11	meg	2	hSlsyqryUro	Smoking hookah	Relaxing&Leisure	Socializing, Relaxing, and Leisure	Relaxing and Leisure	Tobacco and drug use	189	3	True	False	False	True	0.7650693315663375
video_on	action	11	meg	2	2_mvwzElKEo	Bullfighting	Participating_in_sports&Exercise&Recreation	Sports, Exercise, and Recreation	Participating in Sports, Exercise, or Recreation	Participating in rodeo competitions	288	1	True	True	True	True	0.245173657182022
video_on	action	11	meg	2	9_1aJcnj7yw	Putting in contact lenses	Grooming	Personal Care	Grooming	Washing, dressing and grooming oneself	351	4	True	False	False	True	0.8365535113989608
video_on	action	11	meg	2	70U_nllWPD0	Scuba diving	Participating_in_sports&Exercise&Recreation	Sports, Exercise, and Recreation	Participating in Sports, Exercise, or Recreation	Participating in water sports	364	1	False	True	False	False	0.0
video_on	action	11	meg	2	QEkldRIewIM	Pole vault	Participating_in_sports&Exercise&Recreation	Sports, Exercise, and Recreation	Participating in Sports, Exercise, or Recreation	Playing sports	106	1	True	True	False	False	0.0051387008425081
video_on	action	11	meg	2	igi79RLIxHA	Cricket	Participating_in_sports&Exercise&Recreation	Sports, Exercise, and Recreation	Participating in Sports, Exercise, or Recreation	Playing sports	82	1	True	True	True	True	0.5649579422170063
video_on	action	11	meg	2	S7QpPbYFvJw	Polishing shoes	Housework	Household Activities	Housework	Sewing, repairing, & maintaining textiles	227	6	True	False	False	True	0.6619834847952006
video_on	action	11	meg	2	y3JIQnT5Ddc	Assembling bicycle	Vehicles	Household Activities	Vehicles	Vehicle repair and maintenance (by self)	273	11	True	False	False	True	0.8780066441104282
video_on	action	11	meg	2	dOiE5OjyuKs	Belly dance	Arts&Entertainment	Socializing, Relaxing, and Leisure	Arts and Entertainment	Dancing	247	2	True	False	False	True	0.3967869158368557
video_on	action	11	meg	2	U_ckYV0iyjM	Hitting a pinata	Relaxing&Leisure	Socializing, Relaxing, and Leisure	Relaxing and Leisure	Playing games	321	3	True	False	False	True	0.6771366602188209
video_on	action	11	meg	2	pyh-lijBM2g	Running a marathon	Participating_in_sports&Exercise&Recreation	Sports, Exercise, and Recreation	Participating in Sports, Exercise, or Recreation	Running	362	1	False	True	False	False	0.0
video_on	action	11	meg	2	DilNY1cKuaU	Swimming	Participating_in_sports&Exercise&Recreation	Sports, Exercise, and Recreation	Participating in Sports, Exercise, or Recreation	Participating in water sports	377	1	True	True	True	True	0.2788458374707261
video_on	action	11	meg	2	Bv4XWiypIvU	Sailing	Participating_in_sports&Exercise&Recreation	Sports, Exercise, and Recreation	Participating in Sports, Exercise, or Recreation	Participating in water sports	240	1	True	True	False	False	0.9502998304960784
video_on	action	11	meg	2	dT84v90Lc_I	Knitting	Housework	Household Activities	Housework	Sewing, repairing, & maintaining textiles	329	6	True	False	False	True	0.0050946280971402
video_on	action	11	meg	2	uimPY3I1aw4	Playing blackjack	Arts&Entertainment	Socializing, Relaxing, and Leisure	Arts and Entertainment	Attending gambling establishments	343	2	False	False	False	True	0.0
video_on	action	11	meg	2	fDxgdIcWKmY	Ping-pong	Participating_in_sports&Exercise&Recreation	Sports, Exercise, and Recreation	Participating in Sports, Exercise, or Recreation	Playing racquet sports	119	1	True	True	False	False	0.0050928168930113
video_on	action	11	meg	2	LDDPwqA5Oxg	Fun sliding down	Arts&Entertainment	Socializing, Relaxing, and Leisure	Arts and Entertainment	Park activities	313	2	True	False	True	False	0.8954534134536516
video_on	action	11	meg	2	r9bs_VMM8WY	Mixing drinks	Food&Drink_prep.&Presentation&Clean-up	Eating and drinking Activities	Food & Drink Prep., Presentation, & Clean-up	Food and drink preparation	244	5	True	False	True	False	0.6956731734389905
video_on	action	11	meg	2	UYV9-EU67Hg	Beer pong	Relaxing&Leisure	Socializing, Relaxing, and Leisure	Relaxing and Leisure	Playing games	280	3	True	False	True	False	0.3438434753479669
video_on	action	11	meg	2	9VuaV_LnANc	Rock climbing	Participating_in_sports&Exercise&Recreation	Sports, Exercise, and Recreation	Participating in Sports, Exercise, or Recreation	Climbing, spelunking, caving	188	1	True	True	False	False	0.7353111731936224
video_on	action	11	meg	2	AZ0Jd_SWiqI	Long jump	Participating_in_sports&Exercise&Recreation	Sports, Exercise, and Recreation	Participating in Sports, Exercise, or Recreation	Playing sports	80	1	True	True	True	True	0.7433221491228323
video_on	action	11	meg	2	42xVLWgSKOc	Hanging wallpaper	Interior_maintenance&Repair&Decoration	Household Activities	Interior Maintenance, Repair, & Decoration	Interior arrangement, decoration, & repairs	319	7	True	False	False	True	0.6883676632860443
video_on	action	11	meg	2	3ahF-YrsxuU	Tango	Arts&Entertainment	Socializing, Relaxing, and Leisure	Arts and Entertainment	Dancing	73	2	True	False	False	True	0.9728937529871472
video_on	action	11	meg	2	y6i0EwnofHs	Snatch	Participating_in_sports&Exercise&Recreation	Sports, Exercise, and Recreation	Participating in Sports, Exercise, or Recreation	Weightlifting	79	1	True	True	False	False	0.0050934206374222
video_on	action	11	meg	2	dMSg6wBvn5g	Sumo	Participating_in_sports&Exercise&Recreation	Sports, Exercise, and Recreation	Participating in Sports, Exercise, or Recreation	Wrestling	375	1	True	True	True	True	0.7540867659554351
video_on	action	11	meg	2	emplZ1kgr2U	Sharpening knives	Appliances&Tools&Toys	Household Activities	Appliances, Tools, and Toys	Appliance, tool, and toy set-up, repair, & maintenance (by self)	365	10	True	False	False	True	0.7521831856429344
video_on	action	11	meg	2	xQ4SWF81JBQ	Washing dishes	Food&Drink_prep.&Presentation&Clean-up	Eating and drinking Activities	Food & Drink Prep., Presentation, & Clean-up	Kitchen and food clean-up	213	5	True	False	False	True	0.7764657583466033
video_on	action	11	meg	2	MzdAiSw2uAk	Camel ride	Participating_in_sports&Exercise&Recreation	Sports, Exercise, and Recreation	Participating in Sports, Exercise, or Recreation	Playing sports	291	1	True	True	True	True	0.3932550589379389
video_on	action	11	meg	2	6VwpYQnpotY	Elliptical trainer	Participating_in_sports&Exercise&Recreation	Sports, Exercise, and Recreation	Participating in Sports, Exercise, or Recreation	Using cardiovascular equipment	308	1	True	True	True	True	0.3135461805359227
video_on	action	11	meg	2	HDo9-wxn7Yc	Hula hoop	Relaxing&Leisure	Socializing, Relaxing, and Leisure	Relaxing and Leisure	Playing games	322	3	True	False	True	False	0.5616198846546467
video_on	action	11	meg	2	Jb2DcI_D9yE	Playing racquetball	Participating_in_sports&Exercise&Recreation	Sports, Exercise, and Recreation	Participating in Sports, Exercise, or Recreation	Playing racquet sports	253	1	True	True	True	True	0.4031394283520058
video_on	action	11	meg	2	0nrAzq049BA	Using the pommel horse	Participating_in_sports&Exercise&Recreation	Sports, Exercise, and Recreation	Participating in Sports, Exercise, or Recreation	Doing gymnastics	114	1	True	True	True	True	0.4332806573511334
video_on	action	11	meg	2	zWe6Zbaz1uM	Fixing bicycle	Vehicles	Household Activities	Vehicles	Vehicle repair and maintenance (by self)	171	11	False	False	False	True	0.0
video_on	action	11	meg	2	kQOoA4xs-Zc	Doing step aerobics	Participating_in_sports&Exercise&Recreation	Sports, Exercise, and Recreation	Participating in Sports, Exercise, or Recreation	Doing aerobics	230	1	True	True	True	True	0.7061793911561836
video_on	action	11	meg	2	kH7ihI8-3HI	Getting a tattoo	Grooming	Personal Care	Grooming	Washing, dressing and grooming	187	4	True	False	False	True	0.4843181025789818
video_on	action	11	meg	2	RYdy4FuWF04	Playing squash	Participating_in_sports&Exercise&Recreation	Sports, Exercise, and Recreation	Participating in Sports, Exercise, or Recreation	Playing racquet sports	194	1	True	True	False	False	2.346356527370517
video_on	action	11	meg	2	RsFLLv5f9vQ	Ironing clothes	Housework	Household Activities	Housework	Laundry	83	6	True	False	False	True	0.8601209585467586
video_on	action	11	meg	2	r4svHRS1Xlw	Smoking a cigarette	Relaxing&Leisure	Socializing, Relaxing, and Leisure	Relaxing and Leisure	Tobacco and drug use	201	3	True	False	False	True	0.0050967411807505
video_on	action	11	meg	2	VI60fRXHFSw	Preparing pasta	Food&Drink_prep.&Presentation&Clean-up	Eating and drinking Activities	Food & Drink Prep., Presentation, & Clean-up	Food and drink preparation	186	5	True	False	False	True	0.8410087828524411
video_on	action	11	meg	2	mLd9g8V_-TU	Playing congas	Arts&Entertainment	Socializing, Relaxing, and Leisure	Arts and Entertainment	Playing musical instruments	345	2	True	False	True	False	0.6024550933507271
video_on	action	11	meg	2	g1N-8wW-lMc	Slacklining	Relaxing&Leisure	Socializing, Relaxing, and Leisure	Relaxing and Leisure	Playing games	371	3	True	False	True	False	0.3567199614772107
video_on	action	11	meg	2	zzxYEZkahBU	Shuffleboard	Relaxing&Leisure	Socializing, Relaxing, and Leisure	Relaxing and Leisure	Playing games	368	3	False	False	False	True	0.0
video_on	action	11	meg	2	TEJLY-2zeRM	Baking cookies	Food&Drink_prep.&Presentation&Clean-up	Eating and drinking Activities	Food & Drink Prep., Presentation, & Clean-up	Food and drink preparation	276	5	True	False	False	True	0.6256086793146096
video_on	action	11	meg	2	_GukJ19kfg4	Making a lemonade	Food&Drink_prep.&Presentation&Clean-up	Eating and drinking Activities	Food & Drink Prep., Presentation, & Clean-up	Food and drink preparation	333	5	False	False	False	True	0.0
video_on	action	11	meg	2	GlsLlIawInQ	Waxing skis	Appliances&Tools&Toys	Household Activities	Appliances, Tools, and Toys	Appliance, tool, and toy set-up, repair, & maintenance (by self)	387	10	True	False	False	True	0.0051054953510174
video_on	action	11	meg	2	l3k1ZSuApxQ	Wrapping presents	Household_management	Household Activities	Household Management	Household & personal organization and planning	179	13	True	False	False	True	0.5230338952678721
video_on	action	11	meg	2	F-h3_h_8rh4	Doing motocross	Participating_in_sports&Exercise&Recreation	Sports, Exercise, and Recreation	Participating in Sports, Exercise, or Recreation	Playing sports	243	1	True	True	True	True	0.00509704304568
video_on	action	11	meg	2	hKn92s9R6xY	Cleaning sink	Interior_maintenance&Repair&Decoration	Household Activities	Interior Maintenance, Repair, & Decoration	Interior arrangement, decoration, & repairs	297	7	True	False	False	True	0.8504771780135343
video_on	action	11	meg	2	groAnepbJBA	Putting on shoes	Grooming	Personal Care	Grooming	Washing, dressing and grooming oneself	352	4	True	False	False	True	0.0053494047897402
video_on	action	11	meg	2	14BWW-6OwrI	Doing nails	Grooming	Personal Care	Grooming	Washing, dressing and grooming oneself	167	4	True	False	False	True	0.0053451786370715
video_on	action	11	meg	2	Ch2Y2ByQSeI	Skateboarding	Participating_in_sports&Exercise&Recreation	Sports, Exercise, and Recreation	Participating in Sports, Exercise, or Recreation	Playing sports	176	1	False	True	False	False	0.0
video_on	action	11	meg	2	ez9oSTEQ9_Y	Waterskiing	Participating_in_sports&Exercise&Recreation	Sports, Exercise, and Recreation	Participating in Sports, Exercise, or Recreation	Participating in water sports	386	1	False	True	False	False	0.0
video_on	action	11	meg	2	-EQiyL9rC9U	Ice fishing	Participating_in_sports&Exercise&Recreation	Sports, Exercise, and Recreation	Participating in Sports, Exercise, or Recreation	Fishing	324	1	True	True	True	True	0.4933931635896442
video_on	action	11	meg	2	0G1o5gtLKcQ	Making a sandwich	Food&Drink_prep.&Presentation&Clean-up	Eating and drinking Activities	Food & Drink Prep., Presentation, & Clean-up	Food and drink preparation	129	5	True	False	False	True	0.8846347622311441
video_on	action	11	meg	2	wEGUAk2wkmY	Riding bumper cars	Relaxing&Leisure	Socializing, Relaxing, and Leisure	Relaxing and Leisure	Playing games	356	3	True	False	False	True	0.8767928324377863
video_on	action	11	meg	2	76ifKsMNH1M	Having an ice cream	Food&Drink_prep.&Presentation&Clean-up	Eating and drinking Activities	Food & Drink Prep., Presentation, & Clean-up	Eating and Drinking	320	5	True	False	False	True	3.21281822558376
video_on	action	11	meg	2	ds6Ra7OF68g	Kite flying	Relaxing&Leisure	Socializing, Relaxing, and Leisure	Relaxing and Leisure	Playing games	327	3	True	False	False	True	0.9171993884228868
video_on	action	11	meg	2	cR6yLegqSIw	Putting on makeup	Grooming	Personal Care	Grooming	Washing, dressing and grooming oneself	76	4	True	False	True	False	0.8053524234710494
video_on	action	11	meg	2	_k8JXQ9NVwU	Hand washing clothes	Housework	Household Activities	Housework	Laundry	232	6	True	False	False	True	0.0051233055855846
video_on	action	11	meg	2	PReZNNgc6dI	Playing beach volleyball	Participating_in_sports&Exercise&Recreation	Sports, Exercise, and Recreation	Participating in Sports, Exercise, or Recreation	Playing volleyball	341	1	False	True	False	False	0.0
video_on	action	11	meg	2	EDdqeeNPVpQ	Cutting the grass	Lawn&Garden&Houseplants	Household Activities	Lawn, Garden, and Houseplants	Lawn, garden, and houseplant care	301	9	True	False	False	True	0.0053439711628016
video_on	action	11	meg	2	zm7xHWsu10I	Springboard diving	Participating_in_sports&Exercise&Recreation	Sports, Exercise, and Recreation	Participating in Sports, Exercise, or Recreation	Participating in water sports	193	1	False	True	False	False	0.0
video_on	action	11	meg	2	PEqsAGZlwnU	Table soccer	Relaxing&Leisure	Socializing, Relaxing, and Leisure	Relaxing and Leisure	Playing games	379	3	True	False	False	True	0.9829692049243022
video_on	action	11	meg	2	Kx32oAdunM8	Hand car wash	Vehicles	Household Activities	Vehicles	Vehicle repair and maintenance (by self)	318	11	True	False	False	True	0.0050940243672812
video_on	action	11	meg	2	n1DxjdkWRPE	Carving jack-o-lanterns	Interior_maintenance&Repair&Decoration	Household Activities	Interior Maintenance, Repair, & Decoration	Interior arrangement, decoration, & repairs	295	7	False	False	False	True	0.0
video_on	action	11	meg	2	8jcCcdeka8g	Breakdancing	Arts&Entertainment	Socializing, Relaxing, and Leisure	Arts and Entertainment	Dancing	236	2	True	False	False	True	0.0053454805165529
video_on	action	11	meg	2	RLiAUZpt0Tg	Tumbling	Participating_in_sports&Exercise&Recreation	Sports, Exercise, and Recreation	Participating in Sports, Exercise, or Recreation	Doing gymnastics	258	1	True	True	True	True	0.4454610356187913
video_on	action	11	meg	2	99ZnB6_3HXQ	Painting fence	Exterior_maintenance&Repair&Decoration	Household Activities	Exterior Maintenance, Repair, & Decoration	Painting fence	336	12	False	False	False	True	0.0
video_on	action	11	meg	2	MlAvE1HstK8	Volleyball	Participating_in_sports&Exercise&Recreation	Sports, Exercise, and Recreation	Participating in Sports, Exercise, or Recreation	Playing volleyball	123	1	True	True	False	False	0.3191077986120945
video_on	action	11	meg	2	ikG9y_z9lzA	Wakeboarding	Participating_in_sports&Exercise&Recreation	Sports, Exercise, and Recreation	Participating in Sports, Exercise, or Recreation	Participating in water sports	385	1	True	True	True	True	0.0053599701786879
video_on	action	11	meg	2	lmfGc3L7LCE	Calf roping	Participating_in_sports&Exercise&Recreation	Sports, Exercise, and Recreation	Participating in Sports, Exercise, or Recreation	Participating in rodeo competitions	290	1	False	True	False	False	0.0
video_on	action	11	meg	2	6uQL_wonuhM	Rafting	Participating_in_sports&Exercise&Recreation	Sports, Exercise, and Recreation	Participating in Sports, Exercise, or Recreation	Boating	353	1	True	True	True	True	0.0053481973154703
video_on	action	11	meg	2	tbBI2945GEU	Polishing forniture	Housework	Household Activities	Housework	Interior cleaning	156	6	False	False	False	True	0.0
video_on	action	11	meg	2	7tAPQ15kkig	Painting	Interior_maintenance&Repair&Decoration	Household Activities	Interior Maintenance, Repair, & Decoration	Interior arrangement, decoration, & repairs	217	7	False	False	False	True	0.0
video_on	action	11	meg	2	1aFNn73ny_w	Playing flauta	Arts&Entertainment	Socializing, Relaxing, and Leisure	Arts and Entertainment	Playing musical instruments	149	2	True	False	False	True	0.0053415562142618
video_on	action	11	meg	2	npbbxsJE-pY	Paintball	Participating_in_sports&Exercise&Recreation	Sports, Exercise, and Recreation	Participating in Sports, Exercise, or Recreation	Playing sports	141	1	True	True	False	False	0.7121270985517185
video_on	action	11	meg	2	NEUvbJyXkjc	Clean and jerk	Participating_in_sports&Exercise&Recreation	Sports, Exercise, and Recreation	Participating in Sports, Exercise, or Recreation	Weightlifting	84	1	False	True	False	False	0.0
video_on	action	11	meg	2	OCTyKnjpsb8	Getting a piercing	Grooming	Personal Care	Grooming	Washing, dressing and grooming	214	4	True	False	False	True	0.0050958355714101
video_on	action	11	meg	2	-w3KSGlo1uY	Grooming dog	Animals&Pets	Household Activities	Animals and Pets	Care for animals and pets (not veterinary care)	317	8	False	False	False	True	0.0
video_on	action	11	meg	2	KN0KmLy9_-g	Disc dog	Animals&Pets	Household Activities	Animals and Pets	Walking / exercising / playing with animals	303	8	True	False	True	False	0.2908725648594554
video_on	action	11	meg	2	vaEk2s7cXmk	Ballet	Arts&Entertainment	Socializing, Relaxing, and Leisure	Arts and Entertainment	Attending arts and entertainment	229	2	False	False	False	True	0.0
video_on	action	11	eeg	2	Ebl92MkDuIg	Playing water polo	Participating_in_sports&Exercise&Recreation	Sports, Exercise, and Recreation	Participating in Sports, Exercise, or Recreation	Participating in water sports	130	1	True	True	True	True	0.8132455000013579
video_on	action	11	eeg	2	Y51S62HiSwE	Tug of war	Relaxing&Leisure	Socializing, Relaxing, and Leisure	Relaxing and Leisure	Playing games	382	3	True	False	True	False	0.8652686000004906
video_on	action	11	eeg	2	tGtsrZdTopY	Washing dishes	Food&Drink_prep.&Presentation&Clean-up	Eating and drinking Activities	Food & Drink Prep., Presentation, & Clean-up	Kitchen and food clean-up	213	5	True	False	False	True	0.8447054000007483
video_on	action	11	eeg	2	3NHlvQjf1wc	Dodgeball	Participating_in_sports&Exercise&Recreation	Sports, Exercise, and Recreation	Participating in Sports, Exercise, or Recreation	Playing sports	161	1	True	True	True	True	0.6511393999990105
video_on	action	11	eeg	2	aI2KafzpKRA	Assembling bicycle	Vehicles	Household Activities	Vehicles	Vehicle repair and maintenance (by self)	273	11	True	False	False	True	0.6356018999995285
video_on	action	11	eeg	2	U3VPVNCqa78	Putting in contact lenses	Grooming	Personal Care	Grooming	Washing, dressing and grooming oneself	351	4	True	False	False	True	0.7258602000001702
video_on	action	11	eeg	2	DFBVdGyHpeI	Playing lacrosse	Participating_in_sports&Exercise&Recreation	Sports, Exercise, and Recreation	Participating in Sports, Exercise, or Recreation	Playing racquet sports	209	1	True	True	True	True	0.8194118999999773
video_on	action	11	eeg	2	0_b1b006SQk	Hand washing clothes	Housework	Household Activities	Housework	Laundry	232	6	True	False	False	True	0.8441387000002578
video_on	action	11	eeg	2	FNXFE1EsAYM	Zumba	Participating_in_sports&Exercise&Recreation	Sports, Exercise, and Recreation	Participating in Sports, Exercise, or Recreation	Doing aerobics	69	1	True	True	False	False	0.7541626000001997
video_on	action	11	eeg	2	Gkz4ccnoZ50	Fun sliding down	Arts&Entertainment	Socializing, Relaxing, and Leisure	Arts and Entertainment	Park activities	313	2	True	False	False	True	0.5895952999999281
video_on	action	11	eeg	2	feGRxzHLi2k	Using the pommel horse	Participating_in_sports&Exercise&Recreation	Sports, Exercise, and Recreation	Participating in Sports, Exercise, or Recreation	Doing gymnastics	114	1	True	True	True	True	0.9058750999993208
video_on	action	11	eeg	2	mixXRz68y-g	Arm wrestling	Participating_in_sports&Exercise&Recreation	Sports, Exercise, and Recreation	Participating in Sports, Exercise, or Recreation	Wrestling	271	1	True	True	False	False	0.9507740999997624
video_on	action	11	eeg	2	6KYou60haZU	Pole vault	Participating_in_sports&Exercise&Recreation	Sports, Exercise, and Recreation	Participating in Sports, Exercise, or Recreation	Playing sports	106	1	True	True	True	True	0.9785696999988432
video_on	action	11	eeg	2	ACd9A-8Ougo	Belly dance	Arts&Entertainment	Socializing, Relaxing, and Leisure	Arts and Entertainment	Dancing	247	2	True	False	False	True	0.6051053000010143
video_on	action	11	eeg	2	ejq7pDS1j9g	Rafting	Participating_in_sports&Exercise&Recreation	Sports, Exercise, and Recreation	Participating in Sports, Exercise, or Recreation	Boating	353	1	True	True	True	True	0.980314599999474
video_on	action	11	eeg	2	Ec-1iFCMj2w	Blow-drying hair	Grooming	Personal Care	Grooming	Washing, dressing and grooming oneself	281	4	False	False	False	True	0.0
video_on	action	11	eeg	2	N8Ub-a9zScQ	Polishing shoes	Housework	Household Activities	Housework	Sewing, repairing, & maintaining textiles	227	6	True	False	False	True	0.0050701000000117
video_on	action	11	eeg	2	5y2sAT9x4FE	Disc dog	Animals&Pets	Household Activities	Animals and Pets	Walking / exercising / playing with animals	303	8	True	False	False	True	0.6955885999996099
video_on	action	11	eeg	2	NUVRP2G1xRY	Horseback riding	Participating_in_sports&Exercise&Recreation	Sports, Exercise, and Recreation	Participating in Sports, Exercise, or Recreation	Participating in equestrian sports	175	1	True	True	True	True	0.922929899999872
video_on	action	11	eeg	2	0llTSIkhADg	Kite flying	Relaxing&Leisure	Socializing, Relaxing, and Leisure	Relaxing and Leisure	Playing games	327	3	True	False	False	True	0.7173026999989816
video_on	action	11	eeg	2	YZftwKbDPhY	Cleaning shoes	Housework	Household Activities	Housework	Sewing, repairing, & maintaining textiles	134	6	True	False	False	True	0.6215315999997983
video_on	action	11	eeg	2	hFadjopd7hE	Doing karate	Participating_in_sports&Exercise&Recreation	Sports, Exercise, and Recreation	Participating in Sports, Exercise, or Recreation	Participating in martial arts	99	1	True	True	True	True	0.6688033000009455
video_on	action	11	eeg	2	s_ZYz8QWheg	Hammer throw	Participating_in_sports&Exercise&Recreation	Sports, Exercise, and Recreation	Participating in Sports, Exercise, or Recreation	Playing sports	224	1	True	True	True	True	0.6606568999995943
video_on	action	11	eeg	2	u4g_Mpj0LyQ	Using the monkey bar	Arts&Entertainment	Socializing, Relaxing, and Leisure	Arts and Entertainment	Park activities	383	2	True	False	True	False	0.6891307999994751
video_on	action	11	eeg	2	SwkNlnu7-hc	Rock-paper-scissors	Relaxing&Leisure	Socializing, Relaxing, and Leisure	Relaxing and Leisure	Playing games	358	3	True	False	False	True	0.5876942999984749
video_on	action	11	eeg	2	36ZYktlSZLM	Croquet	Participating_in_sports&Exercise&Recreation	Sports, Exercise, and Recreation	Participating in Sports, Exercise, or Recreation	Playing sports	299	1	False	True	False	False	0.0
video_on	action	11	eeg	2	FAf8c7I3IHc	Spinning	Participating_in_sports&Exercise&Recreation	Sports, Exercise, and Recreation	Participating in Sports, Exercise, or Recreation	Using cardiovascular equipment	117	1	True	True	True	True	0.0050761999991664
video_on	action	11	eeg	2	dftmHF_0M18	Rollerblading	Participating_in_sports&Exercise&Recreation	Sports, Exercise, and Recreation	Participating in Sports, Exercise, or Recreation	Playing sports	359	1	True	True	True	True	0.732450700001209
video_on	action	11	eeg	2	IrXdIe8Svo0	Springboard diving	Participating_in_sports&Exercise&Recreation	Sports, Exercise, and Recreation	Participating in Sports, Exercise, or Recreation	Participating in water sports	193	1	True	True	True	True	0.715982100000474
video_on	action	11	eeg	2	SYbv3Xa4Ij0	Playing bagpipes	Arts&Entertainment	Socializing, Relaxing, and Leisure	Arts and Entertainment	Playing musical instruments	136	2	True	False	False	True	0.7048813000001246
video_on	action	11	eeg	2	SN_x9F0pk0c	Waxing skis	Appliances&Tools&Toys	Household Activities	Appliances, Tools, and Toys	Appliance, tool, and toy set-up, repair, & maintenance (by self)	387	10	True	False	False	True	0.7148051999993186
video_on	action	11	eeg	2	qlH2bcnVdVI	Smoking hookah	Relaxing&Leisure	Socializing, Relaxing, and Leisure	Relaxing and Leisure	Tobacco and drug use	189	3	True	False	False	True	0.6836132999997062
video_on	action	11	eeg	2	v2vLdcjo1yI	Getting a piercing	Grooming	Personal Care	Grooming	Washing, dressing and grooming	214	4	True	False	False	True	0.824119700000665
video_on	action	11	eeg	2	I5Vx5LwHoKk	Discus throw	Participating_in_sports&Exercise&Recreation	Sports, Exercise, and Recreation	Participating in Sports, Exercise, or Recreation	Playing sports	92	1	True	True	True	True	0.7176221000008809
video_on	action	11	eeg	2	Y7sC6bP0fSU	Playing piano	Arts&Entertainment	Socializing, Relaxing, and Leisure	Arts and Entertainment	Playing musical instruments	197	2	True	False	False	True	0.606131300000925
video_on	action	11	eeg	2	OOfn4Nu55_M	Fixing bicycle	Vehicles	Household Activities	Vehicles	Vehicle repair and maintenance (by self)	171	11	True	False	False	True	0.6166412999991735
video_on	action	11	eeg	2	OyrBrTB7PS8	Playing beach volleyball	Participating_in_sports&Exercise&Recreation	Sports, Exercise, and Recreation	Participating in Sports, Exercise, or Recreation	Playing volleyball	341	1	True	True	True	True	0.7672662999993918
video_on	action	11	eeg	2	DNmNX71kYRw	Making a lemonade	Food&Drink_prep.&Presentation&Clean-up	Eating and drinking Activities	Food & Drink Prep., Presentation, & Clean-up	Food and drink preparation	333	5	False	False	False	True	0.0
video_on	action	11	eeg	2	iZmQmOxhxoY	Throwing darts	Relaxing&Leisure	Socializing, Relaxing, and Leisure	Relaxing and Leisure	Playing games	380	3	True	False	False	True	0.0050697000006039
video_on	action	11	eeg	2	xVNnBQGDXfs	Mooping floor	Housework	Household Activities	Housework	Interior cleaning	335	6	True	False	False	True	1.0173835000005056
video_on	action	11	eeg	2	-ZuLCbHsDEY	Mowing the lawn	Lawn&Garden&Houseplants	Household Activities	Lawn, Garden, and Houseplants	Lawn, garden, and houseplant care	218	9	True	False	False	True	0.6552745999997569
video_on	action	11	eeg	2	FyX7v2MoPWU	Bullfighting	Participating_in_sports&Exercise&Recreation	Sports, Exercise, and Recreation	Participating in Sports, Exercise, or Recreation	Participating in rodeo competitions	288	1	True	True	True	True	0.8774859999994078
video_on	action	11	eeg	2	7h7EZE-CxsY	Starting a campfire	Participating_in_sports&Exercise&Recreation	Sports, Exercise, and Recreation	Participating in Sports, Exercise, or Recreation	Playing sports	153	1	True	True	False	False	0.6261195999995834
video_on	action	11	eeg	2	-LUL66dUGWY	Futsal	Participating_in_sports&Exercise&Recreation	Sports, Exercise, and Recreation	Participating in Sports, Exercise, or Recreation	Playing soccer	315	1	True	True	True	True	0.6903288000012253
video_on	action	11	eeg	2	dFzUKjjggCM	Building sandcastles	Arts&Entertainment	Socializing, Relaxing, and Leisure	Arts and Entertainment	Beach activities	286	2	True	False	False	True	0.7263075999999273
video_on	action	11	eeg	2	qRTRU-D79YY	Making a sandwich	Food&Drink_prep.&Presentation&Clean-up	Eating and drinking Activities	Food & Drink Prep., Presentation, & Clean-up	Food and drink preparation	129	5	True	False	False	True	0.6880877000003238
video_on	action	11	eeg	2	iFat07pz0nk	Painting	Interior_maintenance&Repair&Decoration	Household Activities	Interior Maintenance, Repair, & Decoration	Interior arrangement, decoration, & repairs	217	7	True	False	False	True	0.5823703999994905
video_on	action	11	eeg	2	uTSyGGpXq_I	Playing rubik cube	Relaxing&Leisure	Socializing, Relaxing, and Leisure	Relaxing and Leisure	Playing games	349	3	True	False	False	True	0.6934982000002492
video_on	action	11	eeg	2	4m5AQpER-R4	Washing hands	Grooming	Personal Care	Grooming	Washing, dressing and grooming oneself	173	4	True	False	False	True	0.9543493000001037
video_on	action	11	eeg	2	H26mORQCTsg	Playing blackjack	Arts&Entertainment	Socializing, Relaxing, and Leisure	Arts and Entertainment	Attending gambling establishments	343	2	True	False	False	True	0.7040904000004957
video_on	action	11	eeg	2	_FvOyRCuQqw	Baking cookies	Food&Drink_prep.&Presentation&Clean-up	Eating and drinking Activities	Food & Drink Prep., Presentation, & Clean-up	Food and drink preparation	276	5	True	False	False	True	0.6316585999993549
video_on	action	11	eeg	2	er2BEs5EZFw	Playing accordion	Arts&Entertainment	Socializing, Relaxing, and Leisure	Arts and Entertainment	Playing musical instruments	267	2	True	False	False	True	0.5707022000005963
video_on	action	11	eeg	2	YSdWIktuCS0	Playing flauta	Arts&Entertainment	Socializing, Relaxing, and Leisure	Arts and Entertainment	Playing musical instruments	149	2	True	False	False	True	0.656655499999033
video_on	action	11	eeg	2	HquB2IkmQXs	Volleyball	Participating_in_sports&Exercise&Recreation	Sports, Exercise, and Recreation	Participating in Sports, Exercise, or Recreation	Playing volleyball	123	1	True	True	True	True	0.9857904000000416
video_on	action	11	eeg	2	xfSBr0ORpE0	Tango	Arts&Entertainment	Socializing, Relaxing, and Leisure	Arts and Entertainment	Dancing	73	2	True	False	False	True	0.5821391999998013
video_on	action	11	eeg	2	ecnC_XLeajE	Drinking coffee	Food&Drink_prep.&Presentation&Clean-up	Eating and drinking Activities	Food & Drink Prep., Presentation, & Clean-up	Eating and Drinking	68	5	True	False	False	True	0.6430800999987696
video_on	action	11	eeg	2	q0wKzqqsySk	Cleaning windows	Housework	Household Activities	Housework	Interior cleaning	143	6	True	False	False	True	0.6560808000012912
video_on	action	11	eeg	2	GA1DoeREIq4	Vacuuming floor	Housework	Household Activities	Housework	Interior cleaning	160	6	True	False	False	True	0.7708868999998231
video_on	action	11	eeg	2	ASg5UGj_23A	Riding bumper cars	Relaxing&Leisure	Socializing, Relaxing, and Leisure	Relaxing and Leisure	Playing games	356	3	True	False	False	True	0.7657039999994595
video_on	action	11	eeg	2	DkT1_CUEzjk	Mixing drinks	Food&Drink_prep.&Presentation&Clean-up	Eating and drinking Activities	Food & Drink Prep., Presentation, & Clean-up	Food and drink preparation	244	5	True	False	False	True	1.0058613999990484
video_on	action	11	eeg	2	mwGo4erUY50	Scuba diving	Participating_in_sports&Exercise&Recreation	Sports, Exercise, and Recreation	Participating in Sports, Exercise, or Recreation	Participating in water sports	364	1	True	True	True	True	0.7235749999999825
video_on	action	11	eeg	2	ZpuZEui-Bu0	Playing squash	Participating_in_sports&Exercise&Recreation	Sports, Exercise, and Recreation	Participating in Sports, Exercise, or Recreation	Playing racquet sports	194	1	True	True	True	True	0.6722052999994048
video_on	action	11	eeg	2	q4biSGnUH84	Kneeling	Participating_in_sports&Exercise&Recreation	Sports, Exercise, and Recreation	Participating in Sports, Exercise, or Recreation	Working out	328	1	True	True	True	True	0.7459896000000299
video_on	action	11	eeg	2	k7nOzblvfuQ	Hanging wallpaper	Interior_maintenance&Repair&Decoration	Household Activities	Interior Maintenance, Repair, & Decoration	Interior arrangement, decoration, & repairs	319	7	True	False	False	True	0.7721072000003915
video_on	action	11	eeg	2	bPbY6jRZilo	Wrapping presents	Household_management	Household Activities	Household Management	Household & personal organization and planning	179	13	True	False	False	True	0.6300148999998783
video_on	action	11	eeg	2	tWfxLGjDe00	Laying tile	Interior_maintenance&Repair&Decoration	Household Activities	Interior Maintenance, Repair, & Decoration	Interior arrangement, decoration, & repairs	330	7	False	False	False	True	0.0
video_on	action	11	eeg	2	0z-RvG3_sHU	Playing guitarra	Arts&Entertainment	Socializing, Relaxing, and Leisure	Arts and Entertainment	Playing musical instruments	251	2	True	False	False	True	0.0051841999993484
video_on	action	11	eeg	2	IEIm6DE_0-s	Putting on makeup	Grooming	Personal Care	Grooming	Washing, dressing and grooming oneself	76	4	True	False	False	True	0.8339218000000983
video_on	action	11	eeg	2	eM2GzkPyjbc	Playing harmonica	Arts&Entertainment	Socializing, Relaxing, and Leisure	Arts and Entertainment	Playing musical instruments	100	2	True	False	False	True	0.6265884999993432
video_on	action	11	eeg	2	CzfDxwDHbpI	Raking leaves	Lawn&Garden&Houseplants	Household Activities	Lawn, Garden, and Houseplants	Lawn, garden, and houseplant care	354	9	True	False	False	True	0.6841761999985465
video_on	action	11	eeg	2	kwEclFPUcuY	Beach soccer	Participating_in_sports&Exercise&Recreation	Sports, Exercise, and Recreation	Participating in Sports, Exercise, or Recreation	Playing soccer	278	1	True	True	True	True	0.6650322000004962
video_on	action	11	eeg	2	bN6feO1uIpI	Trimming branches or hedges	Lawn&Garden&Houseplants	Household Activities	Lawn, Garden, and Houseplants	Lawn, garden, and houseplant care	381	9	True	False	False	True	0.98695250000128
video_on	action	11	eeg	2	LPoijFEglsQ	Calf roping	Participating_in_sports&Exercise&Recreation	Sports, Exercise, and Recreation	Participating in Sports, Exercise, or Recreation	Participating in rodeo competitions	290	1	True	True	True	True	0.6386213000005228
video_on	action	11	eeg	2	j3K7nxCNBgQ	BMX	Participating_in_sports&Exercise&Recreation	Sports, Exercise, and Recreation	Participating in Sports, Exercise, or Recreation	Biking	274	1	True	True	True	True	0.700895899999523
video_on	action	11	eeg	2	v0oMlaukQRo	Long jump	Participating_in_sports&Exercise&Recreation	Sports, Exercise, and Recreation	Participating in Sports, Exercise, or Recreation	Playing sports	80	1	True	True	True	True	0.5612756999998965
video_on	action	11	eeg	2	qUNOFNLvmw4	Ironing clothes	Housework	Household Activities	Housework	Laundry	83	6	True	False	False	True	0.6259208000010403
video_on	action	11	eeg	2	WIozM4FlHU0	Capoeira	Participating_in_sports&Exercise&Recreation	Sports, Exercise, and Recreation	Participating in Sports, Exercise, or Recreation	Participating in martial arts	294	1	True	True	True	True	0.6441812000011851
video_on	action	11	eeg	2	oFi817gy2KA	Walking the dog	Animals&Pets	Household Activities	Animals and Pets	Walking / exercising / playing with animals	221	8	True	False	False	True	0.729472099999839
video_on	action	11	eeg	2	g93gdZx1Azc	Cricket	Participating_in_sports&Exercise&Recreation	Sports, Exercise, and Recreation	Participating in Sports, Exercise, or Recreation	Playing sports	82	1	True	True	False	False	0.9881354000008288
video_on	action	11	eeg	2	MJYYy1tBroE	Breakdancing	Arts&Entertainment	Socializing, Relaxing, and Leisure	Arts and Entertainment	Dancing	236	2	True	False	False	True	0.8439126000012038
video_on	action	11	eeg	2	p1_6T9d4ZuY	Using uneven bars	Participating_in_sports&Exercise&Recreation	Sports, Exercise, and Recreation	Participating in Sports, Exercise, or Recreation	Doing gymnastics	192	1	True	True	True	True	0.7294552000003023
video_on	action	11	eeg	2	dOhZuR2-tuY	Playing kickball	Participating_in_sports&Exercise&Recreation	Sports, Exercise, and Recreation	Participating in Sports, Exercise, or Recreation	Playing sports	257	1	True	True	True	True	0.6522129999993922
video_on	action	11	eeg	2	S_psPKUmIZo	Rope skipping	Participating_in_sports&Exercise&Recreation	Sports, Exercise, and Recreation	Participating in Sports, Exercise, or Recreation	Working out	361	1	True	True	True	True	0.7139533999998093
video_on	action	11	eeg	2	v52F2Sja4cE	Tumbling	Participating_in_sports&Exercise&Recreation	Sports, Exercise, and Recreation	Participating in Sports, Exercise, or Recreation	Doing gymnastics	258	1	True	True	True	True	0.6547187999985908
video_on	action	11	eeg	2	9F40zIb-DNk	Hand car wash	Vehicles	Household Activities	Vehicles	Vehicle repair and maintenance (by self)	318	11	True	False	False	True	0.9164595000002008
video_on	action	11	eeg	2	slgQSXMfjr8	Hula hoop	Relaxing&Leisure	Socializing, Relaxing, and Leisure	Relaxing and Leisure	Playing games	322	3	True	False	True	False	0.5987195999987307
video_on	action	11	eeg	2	Z1qa2KwpLhw	Sumo	Participating_in_sports&Exercise&Recreation	Sports, Exercise, and Recreation	Participating in Sports, Exercise, or Recreation	Wrestling	375	1	True	True	True	True	0.7605820000007952
video_on	action	11	eeg	2	bmvFoz2l5EI	Plastering	Interior_maintenance&Repair&Decoration	Household Activities	Interior Maintenance, Repair, & Decoration	Interior arrangement, decoration, & repairs	340	7	True	False	False	True	0.770878499999526
video_on	action	11	eeg	2	S1IGMrs3Muw	Baton twirling	Participating_in_sports&Exercise&Recreation	Sports, Exercise, and Recreation	Participating in Sports, Exercise, or Recreation	Playing sports	277	1	True	True	False	False	0.8648881999997684
video_on	action	11	eeg	2	ElmNH2Vf8Cs	Playing polo	Participating_in_sports&Exercise&Recreation	Sports, Exercise, and Recreation	Participating in Sports, Exercise, or Recreation	Participating in equestrian sports	75	1	False	True	False	False	0.0
video_on	action	11	meg	3	r3IayKRCY7s	Hammer throw	Participating_in_sports&Exercise&Recreation	Sports, Exercise, and Recreation	Participating in Sports, Exercise, or Recreation	Playing sports	224	1	True	True	True	True	0.4221773445024155
video_on	action	11	meg	3	iDmAAdvd6Ls	Playing lacrosse	Participating_in_sports&Exercise&Recreation	Sports, Exercise, and Recreation	Participating in Sports, Exercise, or Recreation	Playing racquet sports	209	1	True	True	True	True	0.341593652323354
video_on	action	11	meg	3	u78MA7oT7w8	Grooming horse	Animals&Pets	Household Activities	Animals and Pets	Walking / exercising / playing with animals	95	8	True	False	False	True	0.5589676714444067
video_on	action	11	meg	3	m_TzleA05PE	BMX	Participating_in_sports&Exercise&Recreation	Sports, Exercise, and Recreation	Participating in Sports, Exercise, or Recreation	Biking	274	1	True	True	True	True	0.5273038196755806
video_on	action	11	meg	3	5StDMC8t3Ks	Assembling bicycle	Vehicles	Household Activities	Vehicles	Vehicle repair and maintenance (by self)	273	11	True	False	False	True	0.359120114822872
video_on	action	11	meg	3	WHRKfBBX8Ek	Zumba	Participating_in_sports&Exercise&Recreation	Sports, Exercise, and Recreation	Participating in Sports, Exercise, or Recreation	Doing aerobics	69	1	True	True	False	False	0.5435702847025823
video_on	action	11	meg	3	o9cZm0BVUQA	Belly dance	Arts&Entertainment	Socializing, Relaxing, and Leisure	Arts and Entertainment	Dancing	247	2	True	False	False	True	0.5110295061022043
video_on	action	11	meg	3	t9n5C3R3BrQ	Throwing darts	Relaxing&Leisure	Socializing, Relaxing, and Leisure	Relaxing and Leisure	Playing games	380	3	True	False	True	False	0.3758236848807428
video_on	action	11	meg	3	w2xQsd9P3UI	Rope skipping	Participating_in_sports&Exercise&Recreation	Sports, Exercise, and Recreation	Participating in Sports, Exercise, or Recreation	Working out	361	1	True	True	True	True	0.4379282187874196
video_on	action	11	meg	3	7VHP7AaoucA	Ice fishing	Participating_in_sports&Exercise&Recreation	Sports, Exercise, and Recreation	Participating in Sports, Exercise, or Recreation	Fishing	324	1	True	True	False	False	0.8300443293264834
video_on	action	11	meg	3	oIMbFFzaUfQ	Waxing skis	Appliances&Tools&Toys	Household Activities	Appliances, Tools, and Toys	Appliance, tool, and toy set-up, repair, & maintenance (by self)	387	10	True	False	False	True	0.6075874549715081
video_on	action	11	meg	3	EIg80aES_1Q	Snow tubing	Participating_in_sports&Exercise&Recreation	Sports, Exercise, and Recreation	Participating in Sports, Exercise, or Recreation	Skiing, ice skating, snowboarding	372	1	True	True	True	True	0.2944581542833475
video_on	action	11	meg	3	j4hDzNLsaa8	Putting on makeup	Grooming	Personal Care	Grooming	Washing, dressing and grooming oneself	76	4	True	False	False	True	0.5519601051055361
video_on	action	11	meg	3	Q_Ht_afelYM	Making a lemonade	Food&Drink_prep.&Presentation&Clean-up	Eating and drinking Activities	Food & Drink Prep., Presentation, & Clean-up	Food and drink preparation	333	5	True	False	False	True	0.7121415882138535
video_on	action	11	meg	3	Hmnk6tkOm0A	Using uneven bars	Participating_in_sports&Exercise&Recreation	Sports, Exercise, and Recreation	Participating in Sports, Exercise, or Recreation	Doing gymnastics	192	1	True	True	True	True	0.5761104595876532
video_on	action	11	meg	3	fnH9uFuVYS0	Ballet	Arts&Entertainment	Socializing, Relaxing, and Leisure	Arts and Entertainment	Attending arts and entertainment	229	2	True	False	False	True	0.3844444343849318
video_on	action	11	meg	3	6Zpu5iSGY70	Tumbling	Participating_in_sports&Exercise&Recreation	Sports, Exercise, and Recreation	Participating in Sports, Exercise, or Recreation	Doing gymnastics	258	1	True	True	True	True	0.0812737626838497
video_on	action	11	meg	3	5FE0Qy1URNM	Fun sliding down	Arts&Entertainment	Socializing, Relaxing, and Leisure	Arts and Entertainment	Park activities	313	2	True	False	True	False	0.2800505930936197
video_on	action	11	meg	3	-wFwHCRgZJc	Dodgeball	Participating_in_sports&Exercise&Recreation	Sports, Exercise, and Recreation	Participating in Sports, Exercise, or Recreation	Playing sports	161	1	True	True	True	True	0.4189467519754544
video_on	action	11	meg	3	bgEfBviBdlM	Canoeing	Participating_in_sports&Exercise&Recreation	Sports, Exercise, and Recreation	Participating in Sports, Exercise, or Recreation	Boating	292	1	True	True	True	True	0.6254803853662452
video_on	action	11	meg	3	Gt6yhrJE5UY	Playing polo	Participating_in_sports&Exercise&Recreation	Sports, Exercise, and Recreation	Participating in Sports, Exercise, or Recreation	Participating in equestrian sports	75	1	True	True	True	True	0.3293755405320553
video_on	action	11	meg	3	3v5qKhZHtsY	Hanging wallpaper	Interior_maintenance&Repair&Decoration	Household Activities	Interior Maintenance, Repair, & Decoration	Interior arrangement, decoration, & repairs	319	7	True	False	False	True	0.4974366869282676
video_on	action	11	meg	3	h9kcMeDWoY8	Ironing clothes	Housework	Household Activities	Housework	Laundry	83	6	True	False	False	True	0.2741508827457437
video_on	action	11	meg	3	fxAqWvtkVrc	Camel ride	Participating_in_sports&Exercise&Recreation	Sports, Exercise, and Recreation	Participating in Sports, Exercise, or Recreation	Playing sports	291	1	True	True	False	False	0.5455354461009847
video_on	action	11	meg	3	Y69jBucyRb8	Longboarding	Participating_in_sports&Exercise&Recreation	Sports, Exercise, and Recreation	Participating in Sports, Exercise, or Recreation	Playing sports	331	1	True	True	True	True	0.3137167360255262
video_on	action	11	meg	3	0FwJknTsOxY	Playing blackjack	Arts&Entertainment	Socializing, Relaxing, and Leisure	Arts and Entertainment	Attending gambling establishments	343	2	True	False	False	True	0.1288210088096093
video_on	action	11	meg	3	J-WhiHJfEcY	Playing violin	Arts&Entertainment	Socializing, Relaxing, and Leisure	Arts and Entertainment	Playing musical instruments	234	2	True	False	False	True	0.5467257120762952
video_on	action	11	meg	3	m6MKwiaymRc	Playing saxophone	Arts&Entertainment	Socializing, Relaxing, and Leisure	Arts and Entertainment	Playing musical instruments	109	2	True	False	False	True	0.5696604436670896
video_on	action	11	meg	3	q1ireyMQjzU	Elliptical trainer	Participating_in_sports&Exercise&Recreation	Sports, Exercise, and Recreation	Participating in Sports, Exercise, or Recreation	Using cardiovascular equipment	308	1	True	True	True	True	0.4365743403031956
video_on	action	11	meg	3	Rzfz7k-sWJE	Doing kickboxing	Participating_in_sports&Exercise&Recreation	Sports, Exercise, and Recreation	Participating in Sports, Exercise, or Recreation	Participating in martial arts	70	1	True	True	True	True	0.3488599196134601
video_on	action	11	meg	3	t5xQhTtYn14	Playing rubik cube	Relaxing&Leisure	Socializing, Relaxing, and Leisure	Relaxing and Leisure	Playing games	349	3	True	False	False	True	0.4988289026659913
video_on	action	11	meg	3	d7vPfNGmEUw	Tango	Arts&Entertainment	Socializing, Relaxing, and Leisure	Arts and Entertainment	Dancing	73	2	True	False	True	False	0.5816427964455215
video_on	action	11	meg	3	kQrAy3UiN2Y	Riding bumper cars	Relaxing&Leisure	Socializing, Relaxing, and Leisure	Relaxing and Leisure	Playing games	356	3	True	False	False	True	0.0050967411807505
video_on	action	11	meg	3	kEl_HXkjIKY	Painting	Interior_maintenance&Repair&Decoration	Household Activities	Interior Maintenance, Repair, & Decoration	Interior arrangement, decoration, & repairs	217	7	True	False	False	True	0.4031128639471717
video_on	action	11	meg	3	NxYrikLghVI	Playing racquetball	Participating_in_sports&Exercise&Recreation	Sports, Exercise, and Recreation	Participating in Sports, Exercise, or Recreation	Playing racquet sports	253	1	True	True	True	True	0.411240059096599
video_on	action	11	meg	3	a6Z7FqKBTdw	Brushing teeth	Grooming	Personal Care	Grooming	Washing, dressing and grooming oneself	148	4	True	False	False	True	0.564352998524555
video_on	action	11	meg	3	aWeTywas8jM	Building sandcastles	Arts&Entertainment	Socializing, Relaxing, and Leisure	Arts and Entertainment	Beach activities	286	2	True	False	False	True	0.4684362175321439
video_on	action	11	meg	3	3aNp99j_5UI	Washing hands	Grooming	Personal Care	Grooming	Washing, dressing and grooming oneself	173	4	True	False	False	True	0.4126482738356571
video_on	action	11	meg	3	PkFOtihJT3E	Hula hoop	Relaxing&Leisure	Socializing, Relaxing, and Leisure	Relaxing and Leisure	Playing games	322	3	True	False	True	False	0.0051338709599804
video_on	action	11	meg	3	-CQncpyQk64	Cheerleading	Arts&Entertainment	Socializing, Relaxing, and Leisure	Arts and Entertainment	Dancing	140	2	True	False	True	False	0.6469773191347485
video_on	action	11	meg	3	ri2hhzpk1Lw	Welding	Appliances&Tools&Toys	Household Activities	Appliances, Tools, and Toys	Appliance, tool, and toy set-up, repair, & maintenance (by self)	388	10	True	False	False	True	0.005095835585962
video_on	action	11	meg	3	rwx3rtPBAfY	Getting a haircut	Grooming	Personal Care	Grooming	Washing, dressing and grooming	208	4	False	False	False	True	0.0
video_on	action	11	meg	3	5g2Nlxv8C1E	Kayaking	Participating_in_sports&Exercise&Recreation	Sports, Exercise, and Recreation	Participating in Sports, Exercise, or Recreation	Participating in water sports	254	1	True	True	True	True	0.3486697426997125
video_on	action	11	meg	3	38dgTDI9Cqw	Triple jump	Participating_in_sports&Exercise&Recreation	Sports, Exercise, and Recreation	Participating in Sports, Exercise, or Recreation	Playing sports	155	1	True	True	True	True	0.342912815962336
video_on	action	11	meg	3	6oHtJYRPrYM	Mooping floor	Housework	Household Activities	Housework	Interior cleaning	335	6	True	False	True	False	0.9409727096062852
video_on	action	11	meg	3	ZroB1Aj89vU	Snatch	Participating_in_sports&Exercise&Recreation	Sports, Exercise, and Recreation	Participating in Sports, Exercise, or Recreation	Weightlifting	79	1	True	True	True	True	0.5092665963311447
video_on	action	11	meg	3	iATMY_JJA4Y	Plataform diving	Participating_in_sports&Exercise&Recreation	Sports, Exercise, and Recreation	Participating in Sports, Exercise, or Recreation	Participating in water sports	233	1	True	True	True	True	0.5417959039477864
video_on	action	11	meg	3	b7PnpGyRdOM	Beach soccer	Participating_in_sports&Exercise&Recreation	Sports, Exercise, and Recreation	Participating in Sports, Exercise, or Recreation	Playing soccer	278	1	True	True	True	True	0.5973423531395383
video_on	action	11	meg	3	CjrZCu6a1p0	Putting on shoes	Grooming	Personal Care	Grooming	Washing, dressing and grooming oneself	352	4	True	False	True	False	0.8303024265769636
video_on	action	11	meg	3	nFX5WmRsgZ4	Using parallel bars	Participating_in_sports&Exercise&Recreation	Sports, Exercise, and Recreation	Participating in Sports, Exercise, or Recreation	Doing gymnastics	88	1	True	True	True	True	0.3024395471438765
video_on	action	11	meg	3	wibcfckhRyU	Tug of war	Relaxing&Leisure	Socializing, Relaxing, and Leisure	Relaxing and Leisure	Playing games	382	3	True	False	True	False	0.421929812640883
video_on	action	11	meg	3	ZsEQ4upitdY	Breakdancing	Arts&Entertainment	Socializing, Relaxing, and Leisure	Arts and Entertainment	Dancing	236	2	True	False	True	False	0.6147172778728418
video_on	action	11	meg	3	T9pIN4G6vvs	Doing nails	Grooming	Personal Care	Grooming	Washing, dressing and grooming oneself	167	4	True	False	True	False	0.7610454296373064
video_on	action	11	meg	3	jNx3J8SQAEU	Playing squash	Participating_in_sports&Exercise&Recreation	Sports, Exercise, and Recreation	Participating in Sports, Exercise, or Recreation	Playing racquet sports	194	1	True	True	False	False	0.0054049485188443
video_on	action	11	meg	3	QbKil5RNzrs	Doing fencing	Participating_in_sports&Exercise&Recreation	Sports, Exercise, and Recreation	Participating in Sports, Exercise, or Recreation	Fencing	309	1	True	True	False	False	0.6943621602258645
video_on	action	11	meg	3	0unsL9JQG-s	Using the monkey bar	Arts&Entertainment	Socializing, Relaxing, and Leisure	Arts and Entertainment	Park activities	383	2	True	False	True	False	0.6407875135337235
video_on	action	11	meg	3	rMgw-kdNw00	Preparing pasta	Food&Drink_prep.&Presentation&Clean-up	Eating and drinking Activities	Food & Drink Prep., Presentation, & Clean-up	Food and drink preparation	186	5	True	False	False	True	0.7108915523713222
video_on	action	11	meg	3	wKajmN62PPY	Smoking a cigarette	Relaxing&Leisure	Socializing, Relaxing, and Leisure	Relaxing and Leisure	Tobacco and drug use	201	3	True	False	True	False	0.809215127810603
video_on	action	11	meg	3	yyOf1VQ3ybQ	Fixing the roof	Exterior_maintenance&Repair&Decoration	Household Activities	Exterior Maintenance, Repair, & Decoration	Exterior repair, improvements, & decoration	311	12	True	False	False	True	0.0050955337064806
video_on	action	11	meg	3	1r9Xki73-FM	Playing bagpipes	Arts&Entertainment	Socializing, Relaxing, and Leisure	Arts and Entertainment	Playing musical instruments	136	2	True	False	False	True	0.5752625120512675
video_on	action	11	meg	3	djnTwAYJGPo	Having an ice cream	Food&Drink_prep.&Presentation&Clean-up	Eating and drinking Activities	Food & Drink Prep., Presentation, & Clean-up	Eating and Drinking	320	5	True	False	False	True	0.0050946281116921
video_on	action	11	meg	3	DvPZeg1KtRQ	Running a marathon	Participating_in_sports&Exercise&Recreation	Sports, Exercise, and Recreation	Participating in Sports, Exercise, or Recreation	Running	362	1	True	True	True	True	0.7195765997894341
video_on	action	11	meg	3	Y5MMcMjCUg0	Swimming	Participating_in_sports&Exercise&Recreation	Sports, Exercise, and Recreation	Participating in Sports, Exercise, or Recreation	Participating in water sports	377	1	True	True	True	True	0.4637234525871463
video_on	action	11	meg	3	LFCVMnDwmcI	Polishing shoes	Housework	Household Activities	Housework	Sewing, repairing, & maintaining textiles	227	6	True	False	False	True	0.7360368641384412
video_on	action	11	meg	3	Ous71Idhr3Q	Sailing	Participating_in_sports&Exercise&Recreation	Sports, Exercise, and Recreation	Participating in Sports, Exercise, or Recreation	Participating in water sports	240	1	False	True	False	False	0.0
video_on	action	11	meg	3	0Jm6lfmyyrw	Ping-pong	Participating_in_sports&Exercise&Recreation	Sports, Exercise, and Recreation	Participating in Sports, Exercise, or Recreation	Playing racquet sports	119	1	False	True	False	False	0.0
video_on	action	11	meg	3	nnQJMAKvGa0	Playing field hockey	Participating_in_sports&Exercise&Recreation	Sports, Exercise, and Recreation	Participating in Sports, Exercise, or Recreation	Playing hockey	94	1	True	True	True	True	0.0050976467900909
video_on	action	11	meg	3	M1ZSKh7JbQQ	Brushing hair	Grooming	Personal Care	Grooming	Washing, dressing and grooming oneself	125	4	True	False	False	True	0.7765928448206978
video_on	action	11	meg	3	i_yLAhW8M6A	Hand car wash	Vehicles	Household Activities	Vehicles	Vehicle repair and maintenance (by self)	318	11	True	False	False	True	0.7366741077130428
video_on	action	11	meg	3	NGcbjt7PrG0	Putting in contact lenses	Grooming	Personal Care	Grooming	Washing, dressing and grooming oneself	351	4	True	False	False	True	0.6089265418995637
video_on	action	11	meg	3	GYWI0pbuoiU	Shot put	Participating_in_sports&Exercise&Recreation	Sports, Exercise, and Recreation	Participating in Sports, Exercise, or Recreation	Playing sports	169	1	True	True	True	True	0.4993677372403908
video_on	action	11	meg	3	5NJHlsnSbHU	Polishing forniture	Housework	Household Activities	Housework	Interior cleaning	156	6	True	False	False	True	0.9211937072541332
video_on	action	11	meg	3	v8u8BiprYKs	Trimming branches or hedges	Lawn&Garden&Houseplants	Household Activities	Lawn, Garden, and Houseplants	Lawn, garden, and houseplant care	381	9	True	False	False	True	0.3554333995853085
video_on	action	11	meg	3	yRj8ac8ClRI	Plastering	Interior_maintenance&Repair&Decoration	Household Activities	Interior Maintenance, Repair, & Decoration	Interior arrangement, decoration, & repairs	340	7	True	False	False	True	0.0051501718262443
video_on	action	11	meg	3	CVGs4exNI-E	Hurling	Participating_in_sports&Exercise&Recreation	Sports, Exercise, and Recreation	Participating in Sports, Exercise, or Recreation	Playing sports	323	1	True	True	True	True	1.7958046370040393
video_on	action	11	meg	3	IxrVqcvFHRw	Painting furniture	Interior_maintenance&Repair&Decoration	Household Activities	Interior Maintenance, Repair, & Decoration	Building and repairing furniture	337	7	True	False	True	False	0.2588114546961151
video_on	action	11	meg	3	6of1AV4bugU	Rock-paper-scissors	Relaxing&Leisure	Socializing, Relaxing, and Leisure	Relaxing and Leisure	Playing games	358	3	False	False	False	True	0.0
video_on	action	11	meg	3	xkDB61ZJxeY	Skiing	Participating_in_sports&Exercise&Recreation	Sports, Exercise, and Recreation	Participating in Sports, Exercise, or Recreation	Skiing, ice skating, snowboarding	369	1	False	True	False	False	0.0
video_on	action	11	meg	3	RfwKQeSzWNA	Disc dog	Animals&Pets	Household Activities	Animals and Pets	Walking / exercising / playing with animals	303	8	True	False	True	False	0.0050967411807505
video_on	action	11	meg	3	Jde4hMNFOuk	Spread mulch	Lawn&Garden&Houseplants	Household Activities	Lawn, Garden, and Houseplants	Lawn, garden, and houseplant care	374	9	False	False	False	True	0.0
video_on	action	11	meg	3	6vST9jh7vUM	Making an omelette	Food&Drink_prep.&Presentation&Clean-up	Eating and drinking Activities	Food & Drink Prep., Presentation, & Clean-up	Food and drink preparation	334	5	True	False	False	True	0.610744693534798
video_on	action	11	meg	3	q0K1E6STI64	Cutting the grass	Lawn&Garden&Houseplants	Household Activities	Lawn, Garden, and Houseplants	Lawn, garden, and houseplant care	301	9	True	False	False	True	0.898857580134063
video_on	action	11	meg	3	ENR31p2gL9Q	High jump	Participating_in_sports&Exercise&Recreation	Sports, Exercise, and Recreation	Participating in Sports, Exercise, or Recreation	Playing sports	195	1	False	True	False	False	0.0
video_on	action	11	meg	3	oXKl7obHRyQ	Arm wrestling	Participating_in_sports&Exercise&Recreation	Sports, Exercise, and Recreation	Participating in Sports, Exercise, or Recreation	Wrestling	271	1	True	True	True	True	0.0050955337064806
video_on	action	11	meg	3	DMSlotHD8jE	Doing step aerobics	Participating_in_sports&Exercise&Recreation	Sports, Exercise, and Recreation	Participating in Sports, Exercise, or Recreation	Doing aerobics	230	1	True	True	True	True	0.7144303522363771
video_on	action	11	meg	3	9QlOdJy54XE	Cleaning windows	Housework	Household Activities	Housework	Interior cleaning	143	6	False	False	False	True	0.0
video_on	action	11	meg	3	RyokI6avYmc	Smoking hookah	Relaxing&Leisure	Socializing, Relaxing, and Leisure	Relaxing and Leisure	Tobacco and drug use	189	3	False	False	False	True	0.0
video_on	action	11	meg	3	JiMjIoADRos	Playing flauta	Arts&Entertainment	Socializing, Relaxing, and Leisure	Arts and Entertainment	Playing musical instruments	149	2	False	False	False	True	0.0
video_on	action	11	meg	3	f7IJmeIq-Ng	Croquet	Participating_in_sports&Exercise&Recreation	Sports, Exercise, and Recreation	Participating in Sports, Exercise, or Recreation	Playing sports	299	1	False	True	False	False	0.0
video_on	action	11	meg	3	xZW8fZ4wG84	Raking leaves	Lawn&Garden&Houseplants	Household Activities	Lawn, Garden, and Houseplants	Lawn, garden, and houseplant care	354	9	False	False	False	True	0.0
video_on	action	11	eeg	3	cwAi7DJ3kQk	Futsal	Participating_in_sports&Exercise&Recreation	Sports, Exercise, and Recreation	Participating in Sports, Exercise, or Recreation	Playing soccer	315	1	True	True	True	True	0.7750207000008231
video_on	action	11	eeg	3	Ft65NWVKkd4	Getting a haircut	Grooming	Personal Care	Grooming	Washing, dressing and grooming	208	4	True	False	False	True	0.6064045000002807
video_on	action	11	eeg	3	SnGDUzOzICU	Tug of war	Relaxing&Leisure	Socializing, Relaxing, and Leisure	Relaxing and Leisure	Playing games	382	3	True	False	True	False	0.8102598000004946
video_on	action	11	eeg	3	NO9t2sFxXqY	Long jump	Participating_in_sports&Exercise&Recreation	Sports, Exercise, and Recreation	Participating in Sports, Exercise, or Recreation	Playing sports	80	1	True	True	True	True	0.6404983000011271
video_on	action	11	eeg	3	AakIyUNqGwA	Sharpening knives	Appliances&Tools&Toys	Household Activities	Appliances, Tools, and Toys	Appliance, tool, and toy set-up, repair, & maintenance (by self)	365	10	True	False	False	True	0.5853942000012466
video_on	action	11	eeg	3	ofrkSTRhCE4	Running a marathon	Participating_in_sports&Exercise&Recreation	Sports, Exercise, and Recreation	Participating in Sports, Exercise, or Recreation	Running	362	1	True	True	True	True	0.6387985000001208
video_on	action	11	eeg	3	2TeRGST-TBw	Playing violin	Arts&Entertainment	Socializing, Relaxing, and Leisure	Arts and Entertainment	Playing musical instruments	234	2	True	False	False	True	0.5854196000000229
video_on	action	11	eeg	3	Y0rBAGer0ME	Building sandcastles	Arts&Entertainment	Socializing, Relaxing, and Leisure	Arts and Entertainment	Beach activities	286	2	True	False	False	True	0.5987344000004668
video_on	action	11	eeg	3	KVNl50-UjQ0	Polishing shoes	Housework	Household Activities	Housework	Sewing, repairing, & maintaining textiles	227	6	True	False	False	True	0.8791541000009602
video_on	action	11	eeg	3	32VYPKSvnSY	Playing bagpipes	Arts&Entertainment	Socializing, Relaxing, and Leisure	Arts and Entertainment	Playing musical instruments	136	2	True	False	False	True	0.5882372000014584
