event_name	task	subject	session	run	video_id	class_name	raw_superclass_name	superclass_level0	superclass_level1	superclass_level2	class_id	superclass_id	is_resp	stim_is_sports	resp_is_sports	resp_is_right	resp_time
video_on	action	23	meg	1	OVBsY6aBcds	Using parallel bars	Participating_in_sports&Exercise&Recreation	Sports, Exercise, and Recreation	Participating in Sports, Exercise, or Recreation	Doing gymnastics	88	1	False	True	False	False	0.0
video_on	action	23	meg	1	27RS_RqEMGo	Cleaning shoes	Housework	Household Activities	Housework	Sewing, repairing, & maintaining textiles	134	6	True	False	True	False	0.0051290410337969
video_on	action	23	meg	1	f-oyjdZD-lY	Skiing	Participating_in_sports&Exercise&Recreation	Sports, Exercise, and Recreation	Participating in Sports, Exercise, or Recreation	Skiing, ice skating, snowboarding	369	1	True	True	True	True	0.0051888109301216
video_on	action	23	meg	1	sbV4tfNEkvA	Snatch	Participating_in_sports&Exercise&Recreation	Sports, Exercise, and Recreation	Participating in Sports, Exercise, or Recreation	Weightlifting	79	1	True	True	True	True	0.6227614592644386
video_on	action	23	meg	1	1sQZpf7VqIQ	Getting a piercing	Grooming	Personal Care	Grooming	Washing, dressing and grooming	214	4	True	False	False	True	0.8068195024970919
video_on	action	23	meg	1	ZtqKoSEqSo4	Putting on shoes	Grooming	Personal Care	Grooming	Washing, dressing and grooming oneself	352	4	True	False	True	False	0.4228281721589155
video_on	action	23	meg	1	eOCtxBsvwqU	Rope skipping	Participating_in_sports&Exercise&Recreation	Sports, Exercise, and Recreation	Participating in Sports, Exercise, or Recreation	Working out	361	1	True	True	True	True	0.3291400833986699
video_on	action	23	meg	1	2YMtFlFONRc	Playing polo	Participating_in_sports&Exercise&Recreation	Sports, Exercise, and Recreation	Participating in Sports, Exercise, or Recreation	Participating in equestrian sports	75	1	True	True	True	True	0.3272455591359176
video_on	action	23	meg	1	Eawm09tsKQE	Putting in contact lenses	Grooming	Personal Care	Grooming	Washing, dressing and grooming oneself	351	4	True	False	False	True	0.9257818006444722
video_on	action	23	meg	1	T5Kh51t-WOg	BMX	Participating_in_sports&Exercise&Recreation	Sports, Exercise, and Recreation	Participating in Sports, Exercise, or Recreation	Biking	274	1	True	True	True	True	0.4328396280761808
video_on	action	23	meg	1	CxNfe_viz9Y	Sumo	Participating_in_sports&Exercise&Recreation	Sports, Exercise, and Recreation	Participating in Sports, Exercise, or Recreation	Wrestling	375	1	True	True	True	True	0.5519628219190054
video_on	action	23	meg	1	EBM8FuuETSg	Spinning	Participating_in_sports&Exercise&Recreation	Sports, Exercise, and Recreation	Participating in Sports, Exercise, or Recreation	Using cardiovascular equipment	117	1	True	True	True	True	0.4239381411462091
video_on	action	23	meg	1	CuK4EzEx0o0	Camel ride	Participating_in_sports&Exercise&Recreation	Sports, Exercise, and Recreation	Participating in Sports, Exercise, or Recreation	Playing sports	291	1	True	True	True	True	0.5614626113674603
video_on	action	23	meg	1	rCMehWEX0nA	Plastering	Interior_maintenance&Repair&Decoration	Household Activities	Interior Maintenance, Repair, & Decoration	Interior arrangement, decoration, & repairs	340	7	True	False	False	True	0.6478934888145886
video_on	action	23	meg	1	v3Tvf1ZVek8	Bungee jumping	Participating_in_sports&Exercise&Recreation	Sports, Exercise, and Recreation	Participating in Sports, Exercise, or Recreation	Playing sports	154	1	True	True	False	False	0.496307096502278
video_on	action	23	meg	1	5r-oWggOgxc	Zumba	Participating_in_sports&Exercise&Recreation	Sports, Exercise, and Recreation	Participating in Sports, Exercise, or Recreation	Doing aerobics	69	1	True	True	True	True	0.4506573933176696
video_on	action	23	meg	1	Yihc6Go_j70	Cheerleading	Arts&Entertainment	Socializing, Relaxing, and Leisure	Arts and Entertainment	Dancing	140	2	True	False	True	False	0.4007199554471299
video_on	action	23	meg	1	W6nLAaVeRjQ	Playing violin	Arts&Entertainment	Socializing, Relaxing, and Leisure	Arts and Entertainment	Playing musical instruments	234	2	True	False	False	True	0.402705040120054
video_on	action	23	meg	1	e7ifzjZGMH4	Hand car wash	Vehicles	Household Activities	Vehicles	Vehicle repair and maintenance (by self)	318	11	True	False	False	True	0.7126701592933387
video_on	action	23	meg	1	fZzswQaICfM	Hopscotch	Relaxing&Leisure	Socializing, Relaxing, and Leisure	Relaxing and Leisure	Playing games	241	3	True	False	True	False	0.3791967591969296
video_on	action	23	meg	1	Obon1-JdXNc	Archery	Participating_in_sports&Exercise&Recreation	Sports, Exercise, and Recreation	Participating in Sports, Exercise, or Recreation	Playing sports	250	1	True	True	True	True	0.0053892513969913
video_on	action	23	meg	1	-e52Zu-I4yg	Shot put	Participating_in_sports&Exercise&Recreation	Sports, Exercise, and Recreation	Participating in Sports, Exercise, or Recreation	Playing sports	169	1	True	True	True	True	0.3949675567564554
video_on	action	23	meg	1	e29iv8bZBzk	Tumbling	Participating_in_sports&Exercise&Recreation	Sports, Exercise, and Recreation	Participating in Sports, Exercise, or Recreation	Doing gymnastics	258	1	True	True	True	True	0.417505029879976
video_on	action	23	meg	1	8oamyAR8DVQ	Playing pool	Relaxing&Leisure	Socializing, Relaxing, and Leisure	Relaxing and Leisure	Playing games	348	3	True	False	True	False	0.5138238992076367
video_on	action	23	meg	1	ogRq5_b3UKI	High jump	Participating_in_sports&Exercise&Recreation	Sports, Exercise, and Recreation	Participating in Sports, Exercise, or Recreation	Playing sports	195	1	True	True	True	True	0.5230489887180738
video_on	action	23	meg	1	rx_WeKGQJyg	Bathing dog	Animals&Pets	Household Activities	Animals and Pets	Care for animals and pets (not veterinary care)	90	8	True	False	False	True	0.4014951527351513
video_on	action	23	meg	1	K2wecp6DoSU	Javelin throw	Participating_in_sports&Exercise&Recreation	Sports, Exercise, and Recreation	Participating in Sports, Exercise, or Recreation	Playing sports	116	1	True	True	True	True	0.5134100380237214
video_on	action	23	meg	1	5vjzlb_B0A4	Waterskiing	Participating_in_sports&Exercise&Recreation	Sports, Exercise, and Recreation	Participating in Sports, Exercise, or Recreation	Participating in water sports	386	1	True	True	False	False	0.6655941292992793
video_on	action	23	meg	1	fbqRpNVznz0	Laying tile	Interior_maintenance&Repair&Decoration	Household Activities	Interior Maintenance, Repair, & Decoration	Interior arrangement, decoration, & repairs	330	7	True	False	False	True	0.3212519678054377
video_on	action	23	meg	1	vm6izGC5ZNM	Playing piano	Arts&Entertainment	Socializing, Relaxing, and Leisure	Arts and Entertainment	Playing musical instruments	197	2	True	False	False	True	0.3620008422294631
video_on	action	23	meg	1	F1i5sln481Q	Trimming branches or hedges	Lawn&Garden&Houseplants	Household Activities	Lawn, Garden, and Houseplants	Lawn, garden, and houseplant care	381	9	True	False	False	True	0.3310823027859442
video_on	action	23	meg	1	zFTY4Aq-Hjo	Polishing shoes	Housework	Household Activities	Housework	Sewing, repairing, & maintaining textiles	227	6	True	False	False	True	0.6903593890601769
video_on	action	23	meg	1	0X9gWx3FYBU	Breakdancing	Arts&Entertainment	Socializing, Relaxing, and Leisure	Arts and Entertainment	Dancing	236	2	True	False	True	False	0.4197587771923281
video_on	action	23	meg	1	SiL5vlljhHg	Hurling	Participating_in_sports&Exercise&Recreation	Sports, Exercise, and Recreation	Participating in Sports, Exercise, or Recreation	Playing sports	323	1	True	True	True	True	0.356697321345564
video_on	action	23	meg	1	V_8JPSgGrkg	Sailing	Participating_in_sports&Exercise&Recreation	Sports, Exercise, and Recreation	Participating in Sports, Exercise, or Recreation	Participating in water sports	240	1	True	True	True	True	0.3306288968888111
video_on	action	23	meg	1	LpmfXCl486Q	Drum corps	Arts&Entertainment	Socializing, Relaxing, and Leisure	Arts and Entertainment	Playing musical instruments	307	2	True	False	False	True	0.9754680842743256
video_on	action	23	meg	1	9FoVj_vL2pk	Riding bumper cars	Relaxing&Leisure	Socializing, Relaxing, and Leisure	Relaxing and Leisure	Playing games	356	3	True	False	False	True	0.8656557103968225
video_on	action	23	meg	1	B8UnDOmkaZM	Building sandcastles	Arts&Entertainment	Socializing, Relaxing, and Leisure	Arts and Entertainment	Beach activities	286	2	True	False	False	True	0.683084971329663
video_on	action	23	meg	1	iyU7Nq15IrM	Snow tubing	Participating_in_sports&Exercise&Recreation	Sports, Exercise, and Recreation	Participating in Sports, Exercise, or Recreation	Skiing, ice skating, snowboarding	372	1	True	True	True	True	0.1634078494389541
video_on	action	23	meg	1	gOBvxD5ChZo	Discus throw	Participating_in_sports&Exercise&Recreation	Sports, Exercise, and Recreation	Participating in Sports, Exercise, or Recreation	Playing sports	92	1	True	True	True	True	0.4355428569833748
video_on	action	23	meg	1	XYg2Yo5ZBHk	Fun sliding down	Arts&Entertainment	Socializing, Relaxing, and Leisure	Arts and Entertainment	Park activities	313	2	True	False	False	True	0.0051402101526036
video_on	action	23	meg	1	j4JXoo6WnG8	Bullfighting	Participating_in_sports&Exercise&Recreation	Sports, Exercise, and Recreation	Participating in Sports, Exercise, or Recreation	Participating in rodeo competitions	288	1	True	True	True	True	0.3959172337781638
video_on	action	23	meg	1	aACkXdUoH1c	Playing squash	Participating_in_sports&Exercise&Recreation	Sports, Exercise, and Recreation	Participating in Sports, Exercise, or Recreation	Playing racquet sports	194	1	True	True	True	True	0.331872291630134
video_on	action	23	meg	1	mbQHAIElU_o	Beach soccer	Participating_in_sports&Exercise&Recreation	Sports, Exercise, and Recreation	Participating in Sports, Exercise, or Recreation	Playing soccer	278	1	True	True	True	True	0.5903230139520019
video_on	action	23	meg	1	1tNSfXVpeZo	Drinking coffee	Food&Drink_prep.&Presentation&Clean-up	Eating and drinking Activities	Food & Drink Prep., Presentation, & Clean-up	Eating and Drinking	68	5	True	False	False	True	0.6763659909483977
video_on	action	23	meg	1	g9ZnILprR_I	Croquet	Participating_in_sports&Exercise&Recreation	Sports, Exercise, and Recreation	Participating in Sports, Exercise, or Recreation	Playing sports	299	1	True	True	True	True	0.3508093839045614
video_on	action	23	meg	1	zbdiEKQoOUY	Smoking a cigarette	Relaxing&Leisure	Socializing, Relaxing, and Leisure	Relaxing and Leisure	Tobacco and drug use	201	3	True	False	False	True	0.5406620873254724
video_on	action	23	meg	1	LVaqAgrjzSU	Kneeling	Participating_in_sports&Exercise&Recreation	Sports, Exercise, and Recreation	Participating in Sports, Exercise, or Recreation	Working out	328	1	True	True	True	True	0.5326689216308296
video_on	action	23	meg	1	-1tbiCYc52I	Springboard diving	Participating_in_sports&Exercise&Recreation	Sports, Exercise, and Recreation	Participating in Sports, Exercise, or Recreation	Participating in water sports	193	1	True	True	True	True	0.4849967021145858
video_on	action	23	meg	1	rVC3yT0cGmE	Playing harmonica	Arts&Entertainment	Socializing, Relaxing, and Leisure	Arts and Entertainment	Playing musical instruments	100	2	True	False	False	True	0.3010219744755886
video_on	action	23	meg	1	fhjoTsPH4Nw	Running a marathon	Participating_in_sports&Exercise&Recreation	Sports, Exercise, and Recreation	Participating in Sports, Exercise, or Recreation	Running	362	1	True	True	True	True	0.3168377504334785
video_on	action	23	meg	1	i6YBj_6iGjA	Volleyball	Participating_in_sports&Exercise&Recreation	Sports, Exercise, and Recreation	Participating in Sports, Exercise, or Recreation	Playing volleyball	123	1	True	True	True	True	0.3095524654490873
video_on	action	23	meg	1	QOh_HZaQRSs	Hula hoop	Relaxing&Leisure	Socializing, Relaxing, and Leisure	Relaxing and Leisure	Playing games	322	3	True	False	False	True	0.8775384466862306
video_on	action	23	meg	1	H0NrnX_HWAo	Playing water polo	Participating_in_sports&Exercise&Recreation	Sports, Exercise, and Recreation	Participating in Sports, Exercise, or Recreation	Participating in water sports	130	1	True	True	True	True	0.3417814142885618
video_on	action	23	meg	1	OjD_kVnc568	Assembling bicycle	Vehicles	Household Activities	Vehicles	Vehicle repair and maintenance (by self)	273	11	True	False	False	True	1.00567270553438
video_on	action	23	meg	1	l1X6BitHY7I	Playing field hockey	Participating_in_sports&Exercise&Recreation	Sports, Exercise, and Recreation	Participating in Sports, Exercise, or Recreation	Playing hockey	94	1	True	True	True	True	0.4720269386889413
video_on	action	23	meg	1	kZc0g9aAo8Y	Paintball	Participating_in_sports&Exercise&Recreation	Sports, Exercise, and Recreation	Participating in Sports, Exercise, or Recreation	Playing sports	141	1	False	True	False	False	0.0
video_on	action	23	meg	1	60-ZsyHaP8o	Brushing teeth	Grooming	Personal Care	Grooming	Washing, dressing and grooming oneself	148	4	True	False	False	True	0.720286593597848
video_on	action	23	meg	1	j76Tk75t01Y	Painting fence	Exterior_maintenance&Repair&Decoration	Household Activities	Exterior Maintenance, Repair, & Decoration	Painting fence	336	12	True	False	False	True	0.7664449444855563
video_on	action	23	meg	1	5sZxJaeLfEc	Baking cookies	Food&Drink_prep.&Presentation&Clean-up	Eating and drinking Activities	Food & Drink Prep., Presentation, & Clean-up	Food and drink preparation	276	5	True	False	False	True	0.0053379338351078
video_on	action	23	meg	1	wXFH4fnt5-Y	Throwing darts	Relaxing&Leisure	Socializing, Relaxing, and Leisure	Relaxing and Leisure	Playing games	380	3	True	False	False	True	0.3190278035472147
video_on	action	23	meg	1	Ggoa6pSdzUg	Playing guitarra	Arts&Entertainment	Socializing, Relaxing, and Leisure	Arts and Entertainment	Playing musical instruments	251	2	True	False	False	True	0.4469410949386656
video_on	action	23	meg	1	4FLBIz5YF-E	Ping-pong	Participating_in_sports&Exercise&Recreation	Sports, Exercise, and Recreation	Participating in Sports, Exercise, or Recreation	Playing racquet sports	119	1	True	True	True	True	0.45720672380412
video_on	action	23	meg	1	iSpm2OCvPDU	Making a cake	Food&Drink_prep.&Presentation&Clean-up	Eating and drinking Activities	Food & Drink Prep., Presentation, & Clean-up	Food and drink preparation	332	5	True	False	False	True	0.7271211894694716
video_on	action	23	meg	1	R20aUhTt2IM	Mooping floor	Housework	Household Activities	Housework	Interior cleaning	335	6	True	False	False	True	0.3675998919061385
video_on	action	23	meg	1	U-TYNaLgLo4	Welding	Appliances&Tools&Toys	Household Activities	Appliances, Tools, and Toys	Appliance, tool, and toy set-up, repair, & maintenance (by self)	388	10	True	False	False	True	0.8235423920559697
video_on	action	23	meg	1	7hv13LyMKXY	Disc dog	Animals&Pets	Household Activities	Animals and Pets	Walking / exercising / playing with animals	303	8	True	False	False	True	0.8638662362354808
video_on	action	23	meg	1	svXz2uvZEA0	Raking leaves	Lawn&Garden&Houseplants	Household Activities	Lawn, Garden, and Houseplants	Lawn, garden, and houseplant care	354	9	True	False	False	True	0.5917647360474803
video_on	action	23	meg	1	zWoDOUE2X58	Hanging wallpaper	Interior_maintenance&Repair&Decoration	Household Activities	Interior Maintenance, Repair, & Decoration	Interior arrangement, decoration, & repairs	319	7	True	False	False	True	0.936018148320727
video_on	action	23	meg	1	NPpmZuIn1ec	Tango	Arts&Entertainment	Socializing, Relaxing, and Leisure	Arts and Entertainment	Dancing	73	2	True	False	True	False	0.4161276057129726
video_on	action	23	meg	1	2Wp6CldN0aM	Wakeboarding	Participating_in_sports&Exercise&Recreation	Sports, Exercise, and Recreation	Participating in Sports, Exercise, or Recreation	Participating in water sports	385	1	True	True	True	True	0.0053557439823634
video_on	action	23	meg	1	Jj0UuTkXIyA	Swimming	Participating_in_sports&Exercise&Recreation	Sports, Exercise, and Recreation	Participating in Sports, Exercise, or Recreation	Participating in water sports	377	1	True	True	True	True	0.3766369175864383
video_on	action	23	meg	1	2q9ugg9i0cQ	Shaving	Grooming	Personal Care	Grooming	Washing, dressing and grooming oneself	190	4	True	False	False	True	0.383449477085378
video_on	action	23	meg	1	HT37RtofCZ0	Rafting	Participating_in_sports&Exercise&Recreation	Sports, Exercise, and Recreation	Participating in Sports, Exercise, or Recreation	Boating	353	1	True	True	True	True	0.3514765124418773
video_on	action	23	meg	1	yD1gfJ3-CUk	Using the pommel horse	Participating_in_sports&Exercise&Recreation	Sports, Exercise, and Recreation	Participating in Sports, Exercise, or Recreation	Doing gymnastics	114	1	True	True	True	True	0.5209990023286082
video_on	action	23	meg	1	lCihtY77yLM	Doing fencing	Participating_in_sports&Exercise&Recreation	Sports, Exercise, and Recreation	Participating in Sports, Exercise, or Recreation	Fencing	309	1	True	True	True	True	0.3371764163020998
video_on	action	23	meg	1	muPkkdSZTh0	Playing racquetball	Participating_in_sports&Exercise&Recreation	Sports, Exercise, and Recreation	Participating in Sports, Exercise, or Recreation	Playing racquet sports	253	1	True	True	True	True	0.5613717490923591
video_on	action	23	meg	1	N8WfnPctf3U	Grooming horse	Animals&Pets	Household Activities	Animals and Pets	Walking / exercising / playing with animals	95	8	True	False	False	True	0.5442567327991128
video_on	action	23	meg	1	p05xKbQ0-R0	Knitting	Housework	Household Activities	Housework	Sewing, repairing, & maintaining textiles	329	6	True	False	False	True	0.6655666592996567
video_on	action	23	meg	1	yAx0ecx_xWU	Baton twirling	Participating_in_sports&Exercise&Recreation	Sports, Exercise, and Recreation	Participating in Sports, Exercise, or Recreation	Playing sports	277	1	True	True	True	True	0.5138661607634276
video_on	action	23	meg	1	uq3wfkxig5o	Making an omelette	Food&Drink_prep.&Presentation&Clean-up	Eating and drinking Activities	Food & Drink Prep., Presentation, & Clean-up	Food and drink preparation	334	5	True	False	False	True	0.7220688228844665
video_on	action	23	meg	1	uoabalScO1A	Braiding hair	Grooming	Personal Care	Grooming	Washing, dressing and grooming oneself	285	4	True	False	False	True	0.5694397780462168
video_on	action	23	meg	1	u-6W7CiSJ40	Grooming dog	Animals&Pets	Household Activities	Animals and Pets	Care for animals and pets (not veterinary care)	317	8	False	False	False	True	0.0
video_on	action	23	meg	1	H9Edr4kO-H8	Cricket	Participating_in_sports&Exercise&Recreation	Sports, Exercise, and Recreation	Participating in Sports, Exercise, or Recreation	Playing sports	82	1	True	True	False	False	0.0053448767284862
video_on	action	23	meg	1	cTAGCDqimEQ	Surfing	Participating_in_sports&Exercise&Recreation	Sports, Exercise, and Recreation	Participating in Sports, Exercise, or Recreation	Participating in water sports	376	1	False	True	False	False	0.0
video_on	action	23	meg	1	QVU5k-J7aNc	Washing hands	Grooming	Personal Care	Grooming	Washing, dressing and grooming oneself	173	4	True	False	False	True	0.5880547770066187
video_on	action	23	meg	1	GAF54Fqep30	Ironing clothes	Housework	Household Activities	Housework	Laundry	83	6	True	False	False	True	0.9468582321424036
video_on	action	23	meg	1	dOLaYrx8QIg	Preparing pasta	Food&Drink_prep.&Presentation&Clean-up	Eating and drinking Activities	Food & Drink Prep., Presentation, & Clean-up	Food and drink preparation	186	5	True	False	False	True	0.7062467077630572
video_on	action	23	meg	1	MXpnwSHvtgo	Belly dance	Arts&Entertainment	Socializing, Relaxing, and Leisure	Arts and Entertainment	Dancing	247	2	True	False	True	False	0.5070934478426352
video_on	action	23	meg	1	7-OrI-KVDbc	Playing rubik cube	Relaxing&Leisure	Socializing, Relaxing, and Leisure	Relaxing and Leisure	Playing games	349	3	False	False	False	True	0.0
video_on	action	23	eeg	1	yYQhyeb9C9I	High jump	Participating_in_sports&Exercise&Recreation	Sports, Exercise, and Recreation	Participating in Sports, Exercise, or Recreation	Playing sports	195	1	True	True	True	True	0.526403299998492
video_on	action	23	eeg	1	2xGJbwPOBJc	Spinning	Participating_in_sports&Exercise&Recreation	Sports, Exercise, and Recreation	Participating in Sports, Exercise, or Recreation	Using cardiovascular equipment	117	1	True	True	False	False	0.6073559000215027
video_on	action	23	eeg	1	TOvsiwaKNQc	Pole vault	Participating_in_sports&Exercise&Recreation	Sports, Exercise, and Recreation	Participating in Sports, Exercise, or Recreation	Playing sports	106	1	True	True	True	True	0.0050823999918065
video_on	action	23	eeg	1	rKltgE2hsW4	Clean and jerk	Participating_in_sports&Exercise&Recreation	Sports, Exercise, and Recreation	Participating in Sports, Exercise, or Recreation	Weightlifting	84	1	True	True	True	True	0.0050697999831754
video_on	action	23	eeg	1	0a4eJS3C6Co	Scuba diving	Participating_in_sports&Exercise&Recreation	Sports, Exercise, and Recreation	Participating in Sports, Exercise, or Recreation	Participating in water sports	364	1	True	True	False	False	0.005069699982414
video_on	action	23	eeg	1	U2n-a5NcN14	Welding	Appliances&Tools&Toys	Household Activities	Appliances, Tools, and Toys	Appliance, tool, and toy set-up, repair, & maintenance (by self)	388	10	True	False	False	True	0.0050733000098261
video_on	action	23	eeg	1	37ijmLQdMjw	Using parallel bars	Participating_in_sports&Exercise&Recreation	Sports, Exercise, and Recreation	Participating in Sports, Exercise, or Recreation	Doing gymnastics	88	1	True	True	True	True	0.0050707999907899
video_on	action	23	eeg	1	4o1k3KUHz6E	Playing kickball	Participating_in_sports&Exercise&Recreation	Sports, Exercise, and Recreation	Participating in Sports, Exercise, or Recreation	Playing sports	257	1	True	True	True	True	0.0051406999991741
video_on	action	23	eeg	1	g3cA_E_bl68	Capoeira	Participating_in_sports&Exercise&Recreation	Sports, Exercise, and Recreation	Participating in Sports, Exercise, or Recreation	Participating in martial arts	294	1	True	True	True	True	0.0050666000170167
video_on	action	23	eeg	1	klqJsZazHZQ	Paintball	Participating_in_sports&Exercise&Recreation	Sports, Exercise, and Recreation	Participating in Sports, Exercise, or Recreation	Playing sports	141	1	True	True	False	False	0.0051110000058542
video_on	action	23	eeg	1	JQanx-Z0nn4	Hitting a pinata	Relaxing&Leisure	Socializing, Relaxing, and Leisure	Relaxing and Leisure	Playing games	321	3	True	False	False	True	0.005071699997643
video_on	action	23	eeg	1	3Dc6n65CIN4	Getting a piercing	Grooming	Personal Care	Grooming	Washing, dressing and grooming	214	4	True	False	False	True	0.0050732000090647
video_on	action	23	eeg	1	scCmVcEFTUo	Raking leaves	Lawn&Garden&Houseplants	Household Activities	Lawn, Garden, and Houseplants	Lawn, garden, and houseplant care	354	9	True	False	False	True	0.0050803000049199
video_on	action	23	eeg	1	nf9o9d7RC6o	Javelin throw	Participating_in_sports&Exercise&Recreation	Sports, Exercise, and Recreation	Participating in Sports, Exercise, or Recreation	Playing sports	116	1	True	True	True	True	0.0050789999950211
video_on	action	23	eeg	1	KlGJcoTanzQ	Triple jump	Participating_in_sports&Exercise&Recreation	Sports, Exercise, and Recreation	Participating in Sports, Exercise, or Recreation	Playing sports	155	1	True	True	True	True	0.0050696000107564
video_on	action	23	eeg	1	TqfSOwONxjA	Ballet	Arts&Entertainment	Socializing, Relaxing, and Leisure	Arts and Entertainment	Attending arts and entertainment	229	2	True	False	True	False	0.0050696000107564
video_on	action	23	eeg	1	f_3ksf9FrxA	Using the pommel horse	Participating_in_sports&Exercise&Recreation	Sports, Exercise, and Recreation	Participating in Sports, Exercise, or Recreation	Doing gymnastics	114	1	True	True	True	True	0.005073899985291
video_on	action	23	eeg	1	tLweETgsrEQ	Hand washing clothes	Housework	Household Activities	Housework	Laundry	232	6	True	False	False	True	0.005073899985291
video_on	action	23	eeg	1	tGF17QGyQ6M	Camel ride	Participating_in_sports&Exercise&Recreation	Sports, Exercise, and Recreation	Participating in Sports, Exercise, or Recreation	Playing sports	291	1	True	True	False	False	0.0051720000046771
video_on	action	23	eeg	1	_ik6Kou7YbU	Playing drums	Arts&Entertainment	Socializing, Relaxing, and Leisure	Arts and Entertainment	Playing musical instruments	346	2	True	False	False	True	0.0050992999749723
video_on	action	23	eeg	1	oqhh0ST4DWA	Doing kickboxing	Participating_in_sports&Exercise&Recreation	Sports, Exercise, and Recreation	Participating in Sports, Exercise, or Recreation	Participating in martial arts	70	1	True	True	True	True	0.0050970000156667
video_on	action	23	eeg	1	kSgMo6LFeh8	Playing squash	Participating_in_sports&Exercise&Recreation	Sports, Exercise, and Recreation	Participating in Sports, Exercise, or Recreation	Playing racquet sports	194	1	True	True	True	True	0.0050722000014502
video_on	action	23	eeg	1	ra-NzZN9BUk	Painting	Interior_maintenance&Repair&Decoration	Household Activities	Interior Maintenance, Repair, & Decoration	Interior arrangement, decoration, & repairs	217	7	True	False	False	True	0.0050782000180333
video_on	action	23	eeg	1	wdWzJDW4YqY	Doing step aerobics	Participating_in_sports&Exercise&Recreation	Sports, Exercise, and Recreation	Participating in Sports, Exercise, or Recreation	Doing aerobics	230	1	True	True	True	True	0.0050851000123657
video_on	action	23	eeg	1	O6OU4B5vsTY	Playing congas	Arts&Entertainment	Socializing, Relaxing, and Leisure	Arts and Entertainment	Playing musical instruments	345	2	True	False	False	True	0.0050787999934982
video_on	action	23	eeg	1	Mi3BbF5KrMM	Snow tubing	Participating_in_sports&Exercise&Recreation	Sports, Exercise, and Recreation	Participating in Sports, Exercise, or Recreation	Skiing, ice skating, snowboarding	372	1	True	True	True	True	0.0050729000067804
video_on	action	23	eeg	1	tEWZm3VPNl8	Playing badminton	Participating_in_sports&Exercise&Recreation	Sports, Exercise, and Recreation	Participating in Sports, Exercise, or Recreation	Playing racquet sports	268	1	True	True	True	True	0.0050793999980669
video_on	action	23	eeg	1	UfnQJ1EMI0c	Tug of war	Relaxing&Leisure	Socializing, Relaxing, and Leisure	Relaxing and Leisure	Playing games	382	3	True	False	False	True	0.0050706999900285
video_on	action	23	eeg	1	930AihL3Q90	Playing rubik cube	Relaxing&Leisure	Socializing, Relaxing, and Leisure	Relaxing and Leisure	Playing games	349	3	True	False	True	False	0.0050736000121105
video_on	action	23	eeg	1	zKP_Y_BPIMs	Skateboarding	Participating_in_sports&Exercise&Recreation	Sports, Exercise, and Recreation	Participating in Sports, Exercise, or Recreation	Playing sports	176	1	True	True	True	True	0.0050746999913826
video_on	action	23	eeg	1	GoobfHzyWAA	Using the monkey bar	Arts&Entertainment	Socializing, Relaxing, and Leisure	Arts and Entertainment	Park activities	383	2	True	False	True	False	0.0050726999761536
video_on	action	23	eeg	1	ie7L2pMhMis	Baking cookies	Food&Drink_prep.&Presentation&Clean-up	Eating and drinking Activities	Food & Drink Prep., Presentation, & Clean-up	Food and drink preparation	276	5	True	False	False	True	0.0050901999929919
video_on	action	23	eeg	1	UNV4eYlZm8U	Plataform diving	Participating_in_sports&Exercise&Recreation	Sports, Exercise, and Recreation	Participating in Sports, Exercise, or Recreation	Participating in water sports	233	1	True	True	True	True	0.0050733999814838
video_on	action	23	eeg	1	xoE0XTKP5cU	Shoveling snow	Exterior_maintenance&Repair&Decoration	Household Activities	Exterior Maintenance, Repair, & Decoration	Exterior cleaning	183	12	True	False	False	True	0.0050722000014502
video_on	action	23	eeg	1	pLldIyuNHJU	Playing lacrosse	Participating_in_sports&Exercise&Recreation	Sports, Exercise, and Recreation	Participating in Sports, Exercise, or Recreation	Playing racquet sports	209	1	True	True	True	True	0.0050707999907899
video_on	action	23	eeg	1	v1UIOvyhGps	Playing pool	Relaxing&Leisure	Socializing, Relaxing, and Leisure	Relaxing and Leisure	Playing games	348	3	True	False	True	False	0.0050790999957825
video_on	action	23	eeg	1	5_OSmkFpgRo	Spread mulch	Lawn&Garden&Houseplants	Household Activities	Lawn, Garden, and Houseplants	Lawn, garden, and houseplant care	374	9	True	False	False	True	0.005072600004496
video_on	action	23	eeg	1	HGINhkdp7hY	Mowing the lawn	Lawn&Garden&Houseplants	Household Activities	Lawn, Garden, and Houseplants	Lawn, garden, and houseplant care	218	9	True	False	False	True	0.0050757999997586
video_on	action	23	eeg	1	uktUEay6cD8	Sailing	Participating_in_sports&Exercise&Recreation	Sports, Exercise, and Recreation	Participating in Sports, Exercise, or Recreation	Participating in water sports	240	1	True	True	True	True	0.0050728999776765
video_on	action	23	eeg	1	vGX6ujHC7A4	Bathing dog	Animals&Pets	Household Activities	Animals and Pets	Care for animals and pets (not veterinary care)	90	8	True	False	False	True	0.0050795999995898
video_on	action	23	eeg	1	FYSQFZLcYpg	Mooping floor	Housework	Household Activities	Housework	Interior cleaning	335	6	True	False	False	True	0.0050769999797921
video_on	action	23	eeg	1	tXTA1X2ZpFI	Disc dog	Animals&Pets	Household Activities	Animals and Pets	Walking / exercising / playing with animals	303	8	True	False	False	True	0.0051028000016231
video_on	action	23	eeg	1	jFjpd-K3s1M	Tango	Arts&Entertainment	Socializing, Relaxing, and Leisure	Arts and Entertainment	Dancing	73	2	True	False	True	False	0.0050731000083032
video_on	action	23	eeg	1	jibGtTVnenQ	Running a marathon	Participating_in_sports&Exercise&Recreation	Sports, Exercise, and Recreation	Participating in Sports, Exercise, or Recreation	Running	362	1	True	True	True	True	0.005073899985291
video_on	action	23	eeg	1	CgahRMAuNes	Kneeling	Participating_in_sports&Exercise&Recreation	Sports, Exercise, and Recreation	Participating in Sports, Exercise, or Recreation	Working out	328	1	True	True	False	False	0.0050821999902836
video_on	action	23	eeg	1	WsqwUcgsJUQ	Building sandcastles	Arts&Entertainment	Socializing, Relaxing, and Leisure	Arts and Entertainment	Beach activities	286	2	True	False	False	True	0.0050852000131271
video_on	action	23	eeg	1	qsT4Y4zb79A	Doing motocross	Participating_in_sports&Exercise&Recreation	Sports, Exercise, and Recreation	Participating in Sports, Exercise, or Recreation	Playing sports	243	1	True	True	True	True	0.0050731000083032
video_on	action	23	eeg	1	oiT-oZOrTs0	Doing crunches	Participating_in_sports&Exercise&Recreation	Sports, Exercise, and Recreation	Participating in Sports, Exercise, or Recreation	Working out	305	1	True	True	True	True	0.0050711999938357
video_on	action	23	eeg	1	mpxuHAac4k0	Bungee jumping	Participating_in_sports&Exercise&Recreation	Sports, Exercise, and Recreation	Participating in Sports, Exercise, or Recreation	Playing sports	154	1	False	True	False	False	0.0
video_on	action	23	eeg	1	l4jN1q3D044	Cleaning sink	Interior_maintenance&Repair&Decoration	Household Activities	Interior Maintenance, Repair, & Decoration	Interior arrangement, decoration, & repairs	297	7	True	False	False	True	0.0050860999908763
video_on	action	23	eeg	1	lg5XjhiQNg4	Drinking coffee	Food&Drink_prep.&Presentation&Clean-up	Eating and drinking Activities	Food & Drink Prep., Presentation, & Clean-up	Eating and Drinking	68	5	True	False	True	False	0.0050677999970503
video_on	action	23	eeg	1	WYvGFOsssKE	Preparing pasta	Food&Drink_prep.&Presentation&Clean-up	Eating and drinking Activities	Food & Drink Prep., Presentation, & Clean-up	Food and drink preparation	186	5	True	False	False	True	0.0050683000008575
video_on	action	23	eeg	1	ytbHhPh6Ayg	Laying tile	Interior_maintenance&Repair&Decoration	Household Activities	Interior Maintenance, Repair, & Decoration	Interior arrangement, decoration, & repairs	330	7	True	False	False	True	0.0050803000049199
video_on	action	23	eeg	1	otcIi-CXy0Q	Fixing the roof	Exterior_maintenance&Repair&Decoration	Household Activities	Exterior Maintenance, Repair, & Decoration	Exterior repair, improvements, & decoration	311	12	True	False	False	True	0.0050739999860525
video_on	action	23	eeg	1	IytsybWRN4Y	Playing blackjack	Arts&Entertainment	Socializing, Relaxing, and Leisure	Arts and Entertainment	Attending gambling establishments	343	2	True	False	False	True	0.0050817999872379
video_on	action	23	eeg	1	YJZsRkf0LzM	Blow-drying hair	Grooming	Personal Care	Grooming	Washing, dressing and grooming oneself	281	4	True	False	False	True	0.0050698000122793
video_on	action	23	eeg	1	Ja9W6tD2A1U	Brushing teeth	Grooming	Personal Care	Grooming	Washing, dressing and grooming oneself	148	4	True	False	False	True	0.0050878999754786
video_on	action	23	eeg	1	IZpa0CYAAvY	Walking the dog	Animals&Pets	Household Activities	Animals and Pets	Walking / exercising / playing with animals	221	8	True	False	False	True	0.0050694000092335
video_on	action	23	eeg	1	SexDyV_iVu8	Grooming horse	Animals&Pets	Household Activities	Animals and Pets	Walking / exercising / playing with animals	95	8	True	False	True	False	0.005107200006023
video_on	action	23	eeg	1	76xTdNvYZ0g	Fun sliding down	Arts&Entertainment	Socializing, Relaxing, and Leisure	Arts and Entertainment	Park activities	313	2	True	False	True	False	0.0050703999877441
video_on	action	23	eeg	1	MRH1SjB0Wcw	Ping-pong	Participating_in_sports&Exercise&Recreation	Sports, Exercise, and Recreation	Participating in Sports, Exercise, or Recreation	Playing racquet sports	119	1	True	True	True	True	0.0051248999952804
video_on	action	23	eeg	1	iH51SmAkOvQ	Smoking hookah	Relaxing&Leisure	Socializing, Relaxing, and Leisure	Relaxing and Leisure	Tobacco and drug use	189	3	True	False	False	True	0.0050724999746307
video_on	action	23	eeg	1	Y-25aHUJFQY	Breakdancing	Arts&Entertainment	Socializing, Relaxing, and Leisure	Arts and Entertainment	Dancing	236	2	True	False	True	False	0.0051998000126332
video_on	action	23	eeg	1	kuNYdxx69W4	Using the rowing machine	Participating_in_sports&Exercise&Recreation	Sports, Exercise, and Recreation	Participating in Sports, Exercise, or Recreation	Using cardiovascular equipment	384	1	True	True	True	True	0.0050800000026356
video_on	action	23	eeg	1	5Gvm9vZwdAY	Chopping wood	Interior_maintenance&Repair&Decoration	Household Activities	Interior Maintenance, Repair, & Decoration	Heating and cooling	110	7	True	False	False	True	0.0051169999933335
video_on	action	23	eeg	1	1Y5N5gFfpmM	Playing racquetball	Participating_in_sports&Exercise&Recreation	Sports, Exercise, and Recreation	Participating in Sports, Exercise, or Recreation	Playing racquet sports	253	1	True	True	True	True	0.0050878999754786
video_on	action	23	eeg	1	LBOU8PzuJwQ	Painting fence	Exterior_maintenance&Repair&Decoration	Household Activities	Exterior Maintenance, Repair, & Decoration	Painting fence	336	12	True	False	True	False	0.0050735999830067
video_on	action	23	eeg	1	hkzSg0sH8lM	Belly dance	Arts&Entertainment	Socializing, Relaxing, and Leisure	Arts and Entertainment	Dancing	247	2	True	False	True	False	0.005069300008472
video_on	action	23	eeg	1	0UVUW11FENs	Playing guitarra	Arts&Entertainment	Socializing, Relaxing, and Leisure	Arts and Entertainment	Playing musical instruments	251	2	False	False	False	True	0.0
video_on	action	23	eeg	1	JSpblwHEIiU	Sumo	Participating_in_sports&Exercise&Recreation	Sports, Exercise, and Recreation	Participating in Sports, Exercise, or Recreation	Wrestling	375	1	True	True	False	False	0.0050711999938357
video_on	action	23	eeg	1	DS2Pfqr-Tk4	Brushing hair	Grooming	Personal Care	Grooming	Washing, dressing and grooming oneself	125	4	True	False	False	True	0.7192393000004813
video_on	action	23	eeg	1	shmCsnydcO4	Playing beach volleyball	Participating_in_sports&Exercise&Recreation	Sports, Exercise, and Recreation	Participating in Sports, Exercise, or Recreation	Playing volleyball	341	1	True	True	True	True	0.0051208000222686
video_on	action	23	eeg	1	An9uOHY95IM	Hopscotch	Relaxing&Leisure	Socializing, Relaxing, and Leisure	Relaxing and Leisure	Playing games	241	3	True	False	False	True	0.7216700999997556
video_on	action	23	eeg	1	c5nbwEYH4sY	Playing bagpipes	Arts&Entertainment	Socializing, Relaxing, and Leisure	Arts and Entertainment	Playing musical instruments	136	2	True	False	False	True	0.5928967000218108
video_on	action	23	eeg	1	3cm6s4rIuZ8	Playing harmonica	Arts&Entertainment	Socializing, Relaxing, and Leisure	Arts and Entertainment	Playing musical instruments	100	2	True	False	False	True	0.6448762000072747
video_on	action	23	eeg	1	k7cXKu8zzlY	Carving jack-o-lanterns	Interior_maintenance&Repair&Decoration	Household Activities	Interior Maintenance, Repair, & Decoration	Interior arrangement, decoration, & repairs	295	7	True	False	False	True	0.0050730999791994
video_on	action	23	eeg	1	VoEZb3gbJqw	Table soccer	Relaxing&Leisure	Socializing, Relaxing, and Leisure	Relaxing and Leisure	Playing games	379	3	True	False	False	True	0.2745950999960769
video_on	action	23	eeg	1	HsRS2sdustQ	Cheerleading	Arts&Entertainment	Socializing, Relaxing, and Leisure	Arts and Entertainment	Dancing	140	2	False	False	False	True	0.0
video_on	action	23	eeg	1	PXFYAtjipF0	Doing fencing	Participating_in_sports&Exercise&Recreation	Sports, Exercise, and Recreation	Participating in Sports, Exercise, or Recreation	Fencing	309	1	True	True	True	True	0.0051590999937616
video_on	action	23	eeg	1	tfNvhoDrK1M	Cleaning shoes	Housework	Household Activities	Housework	Sewing, repairing, & maintaining textiles	134	6	True	False	False	True	0.005071699997643
video_on	action	23	eeg	1	hrJ3ANSmroE	Hand car wash	Vehicles	Household Activities	Vehicles	Vehicle repair and maintenance (by self)	318	11	True	False	False	True	0.4699287999828812
video_on	action	23	eeg	1	HoW9cEZ8THU	Wakeboarding	Participating_in_sports&Exercise&Recreation	Sports, Exercise, and Recreation	Participating in Sports, Exercise, or Recreation	Participating in water sports	385	1	True	True	True	True	0.0050756999989971
video_on	action	23	eeg	1	EMepU-ExId4	Using the balance beam	Participating_in_sports&Exercise&Recreation	Sports, Exercise, and Recreation	Participating in Sports, Exercise, or Recreation	Doing gymnastics	180	1	True	True	True	True	0.5510060999949928
video_on	action	23	eeg	1	5V8IIHZeMjg	Longboarding	Participating_in_sports&Exercise&Recreation	Sports, Exercise, and Recreation	Participating in Sports, Exercise, or Recreation	Playing sports	331	1	True	True	True	True	0.0051296000019647
video_on	action	23	eeg	1	5e9Lsh3gnXs	Rollerblading	Participating_in_sports&Exercise&Recreation	Sports, Exercise, and Recreation	Participating in Sports, Exercise, or Recreation	Playing sports	359	1	True	True	True	True	0.0050707000191323
video_on	action	23	eeg	1	O8JVA-scYlM	Making a sandwich	Food&Drink_prep.&Presentation&Clean-up	Eating and drinking Activities	Food & Drink Prep., Presentation, & Clean-up	Food and drink preparation	129	5	True	False	False	True	0.0050723000022117
video_on	action	23	eeg	1	6A4wSQsgtkQ	Wrapping presents	Household_management	Household Activities	Household Management	Household & personal organization and planning	179	13	True	False	False	True	0.5360613000229932
video_on	action	23	eeg	1	Uz8MX4TGswg	Cutting the grass	Lawn&Garden&Houseplants	Household Activities	Lawn, Garden, and Houseplants	Lawn, garden, and houseplant care	301	9	True	False	False	True	0.0050699000130407
video_on	action	23	eeg	1	SKJk0y_Bp6U	Kayaking	Participating_in_sports&Exercise&Recreation	Sports, Exercise, and Recreation	Participating in Sports, Exercise, or Recreation	Participating in water sports	254	1	True	True	True	True	0.0050700999854598
video_on	action	23	eeg	1	8imlYARz9Ko	Hula hoop	Relaxing&Leisure	Socializing, Relaxing, and Leisure	Relaxing and Leisure	Playing games	322	3	False	False	False	True	0.0
video_on	action	23	meg	2	iycxNjSE6ho	Fixing the roof	Exterior_maintenance&Repair&Decoration	Household Activities	Exterior Maintenance, Repair, & Decoration	Exterior repair, improvements, & decoration	311	12	True	False	False	True	0.8713830540655181
video_on	action	23	meg	2	MYTKuFaHBH4	Smoking hookah	Relaxing&Leisure	Socializing, Relaxing, and Leisure	Relaxing and Leisure	Tobacco and drug use	189	3	True	False	False	True	0.4395362702198326
video_on	action	23	meg	2	WWKhWRiBGuo	Playing kickball	Participating_in_sports&Exercise&Recreation	Sports, Exercise, and Recreation	Participating in Sports, Exercise, or Recreation	Playing sports	257	1	True	True	True	True	0.3276696838438511
video_on	action	23	meg	2	dfDB8pkOD9M	Pole vault	Participating_in_sports&Exercise&Recreation	Sports, Exercise, and Recreation	Participating in Sports, Exercise, or Recreation	Playing sports	106	1	True	True	True	True	0.3766758585115894
video_on	action	23	meg	2	cr5JDijMWIY	Calf roping	Participating_in_sports&Exercise&Recreation	Sports, Exercise, and Recreation	Participating in Sports, Exercise, or Recreation	Participating in rodeo competitions	290	1	True	True	True	True	0.402704436390195
video_on	action	23	meg	2	_IQkFbgST6o	Wrapping presents	Household_management	Household Activities	Household Management	Household & personal organization and planning	179	13	True	False	False	True	0.3130800961516797
video_on	action	23	meg	2	bxZ27cnJSr4	Making a lemonade	Food&Drink_prep.&Presentation&Clean-up	Eating and drinking Activities	Food & Drink Prep., Presentation, & Clean-up	Food and drink preparation	333	5	True	False	False	True	0.3144732175278477
video_on	action	23	meg	2	Hw0Qx5JqiMw	Hitting a pinata	Relaxing&Leisure	Socializing, Relaxing, and Leisure	Relaxing and Leisure	Playing games	321	3	True	False	False	True	0.4332329622120596
video_on	action	23	meg	2	qn2vRnrmRpg	Elliptical trainer	Participating_in_sports&Exercise&Recreation	Sports, Exercise, and Recreation	Participating in Sports, Exercise, or Recreation	Using cardiovascular equipment	308	1	True	True	True	True	0.4165284865302965
video_on	action	23	meg	2	X7JJlKqYb5E	Table soccer	Relaxing&Leisure	Socializing, Relaxing, and Leisure	Relaxing and Leisure	Playing games	379	3	True	False	False	True	0.4487061178078875
video_on	action	23	meg	2	juNAgE548vs	Doing crunches	Participating_in_sports&Exercise&Recreation	Sports, Exercise, and Recreation	Participating in Sports, Exercise, or Recreation	Working out	305	1	True	True	True	True	0.4030847902176901
video_on	action	23	meg	2	GzWDgWY5TbY	Doing step aerobics	Participating_in_sports&Exercise&Recreation	Sports, Exercise, and Recreation	Participating in Sports, Exercise, or Recreation	Doing aerobics	230	1	True	True	True	True	0.3858106894767843
video_on	action	23	meg	2	OLi0r0y6pzU	Playing badminton	Participating_in_sports&Exercise&Recreation	Sports, Exercise, and Recreation	Participating in Sports, Exercise, or Recreation	Playing racquet sports	268	1	True	True	False	False	0.8099854952888563
video_on	action	23	meg	2	zRghuIHT8Rs	Hand washing clothes	Housework	Household Activities	Housework	Laundry	232	6	True	False	False	True	0.5374314947985113
video_on	action	23	meg	2	xkf7PXJe_84	Kayaking	Participating_in_sports&Exercise&Recreation	Sports, Exercise, and Recreation	Participating in Sports, Exercise, or Recreation	Participating in water sports	254	1	True	True	True	True	0.6895663815666921
video_on	action	23	meg	2	itBzOypNmVE	Snowboarding	Participating_in_sports&Exercise&Recreation	Sports, Exercise, and Recreation	Participating in Sports, Exercise, or Recreation	Skiing, ice skating, snowboarding	373	1	True	True	True	True	0.3966933367191814
video_on	action	23	meg	2	7ZBmELW6HRw	Cleaning sink	Interior_maintenance&Repair&Decoration	Household Activities	Interior Maintenance, Repair, & Decoration	Interior arrangement, decoration, & repairs	297	7	True	False	False	True	0.364668148860801
video_on	action	23	meg	2	c7DGmC9eNCU	Painting	Interior_maintenance&Repair&Decoration	Household Activities	Interior Maintenance, Repair, & Decoration	Interior arrangement, decoration, & repairs	217	7	True	False	False	True	0.4580389742041006
video_on	action	23	meg	2	2ZVXUFf5-Lc	Mowing the lawn	Lawn&Garden&Houseplants	Household Activities	Lawn, Garden, and Houseplants	Lawn, garden, and houseplant care	218	9	True	False	False	True	0.6421570891980082
video_on	action	23	meg	2	mA7ol7KbjOY	Shoveling snow	Exterior_maintenance&Repair&Decoration	Household Activities	Exterior Maintenance, Repair, & Decoration	Exterior cleaning	183	12	True	False	False	True	0.4982728616450913
video_on	action	23	meg	2	4ZkmSRIhoUw	Shuffleboard	Relaxing&Leisure	Socializing, Relaxing, and Leisure	Relaxing and Leisure	Playing games	368	3	True	False	False	True	0.0052416378748603
video_on	action	23	meg	2	M4aoy4FjFMA	Cleaning windows	Housework	Household Activities	Housework	Interior cleaning	143	6	True	False	False	True	0.8993840381153859
video_on	action	23	meg	2	dF1-NgvvRQI	Longboarding	Participating_in_sports&Exercise&Recreation	Sports, Exercise, and Recreation	Participating in Sports, Exercise, or Recreation	Playing sports	331	1	True	True	True	True	0.4988584857201203
video_on	action	23	meg	2	v7OW60YncY4	Polishing forniture	Housework	Household Activities	Housework	Interior cleaning	156	6	True	False	False	True	0.3544909673510119
video_on	action	23	meg	2	38KryhPct40	Getting a haircut	Grooming	Personal Care	Grooming	Washing, dressing and grooming	208	4	True	False	False	True	0.8854147894307971
video_on	action	23	meg	2	xTPb6Mg3MRs	Carving jack-o-lanterns	Interior_maintenance&Repair&Decoration	Household Activities	Interior Maintenance, Repair, & Decoration	Interior arrangement, decoration, & repairs	295	7	True	False	False	True	0.3740432667545974
video_on	action	23	meg	2	ifPX2NdPWDE	Washing dishes	Food&Drink_prep.&Presentation&Clean-up	Eating and drinking Activities	Food & Drink Prep., Presentation, & Clean-up	Kitchen and food clean-up	213	5	True	False	False	True	0.3401036313152872
video_on	action	23	meg	2	2zZ6j3TdLUo	Fixing bicycle	Vehicles	Household Activities	Vehicles	Vehicle repair and maintenance (by self)	171	11	True	False	False	True	0.515985878650099
video_on	action	23	meg	2	7e2iz4sAkeA	Ballet	Arts&Entertainment	Socializing, Relaxing, and Leisure	Arts and Entertainment	Attending arts and entertainment	229	2	True	False	True	False	0.3719096629065461
video_on	action	23	meg	2	u59Az4ZRByY	Beer pong	Relaxing&Leisure	Socializing, Relaxing, and Leisure	Relaxing and Leisure	Playing games	280	3	True	False	False	True	0.4826152645400725
video_on	action	23	meg	2	jOt37n3eLwM	Decorating the Christmas tree	Interior_maintenance&Repair&Decoration	Household Activities	Interior Maintenance, Repair, & Decoration	Interior arrangement, decoration, & repairs	302	7	True	False	False	True	0.5882772537879646
video_on	action	23	meg	2	H3tueDyjzQg	Having an ice cream	Food&Drink_prep.&Presentation&Clean-up	Eating and drinking Activities	Food & Drink Prep., Presentation, & Clean-up	Eating and Drinking	320	5	True	False	False	True	0.7409038837067783
video_on	action	23	meg	2	hwfsHeu_M0U	Mixing drinks	Food&Drink_prep.&Presentation&Clean-up	Eating and drinking Activities	Food & Drink Prep., Presentation, & Clean-up	Food and drink preparation	244	5	True	False	False	True	0.5724107639980502
video_on	action	23	meg	2	c2GhfG-huKM	Playing flauta	Arts&Entertainment	Socializing, Relaxing, and Leisure	Arts and Entertainment	Playing musical instruments	149	2	True	False	False	True	0.8366449774475768
video_on	action	23	meg	2	ymRtCMjOzws	Vacuuming floor	Housework	Household Activities	Housework	Interior cleaning	160	6	True	False	False	True	0.4454389992170036
video_on	action	23	meg	2	xvbt49J08l0	Using the monkey bar	Arts&Entertainment	Socializing, Relaxing, and Leisure	Arts and Entertainment	Park activities	383	2	True	False	True	False	0.3737284183152951
video_on	action	23	meg	2	-CborBZZHg0	Rock climbing	Participating_in_sports&Exercise&Recreation	Sports, Exercise, and Recreation	Participating in Sports, Exercise, or Recreation	Climbing, spelunking, caving	188	1	True	True	True	True	0.4799796540755778
video_on	action	23	meg	2	hEz5Y0pBtoY	Preparing salad	Food&Drink_prep.&Presentation&Clean-up	Eating and drinking Activities	Food & Drink Prep., Presentation, & Clean-up	Food and drink preparation	96	5	True	False	False	True	0.3980079723405652
video_on	action	23	meg	2	A19kbU6um4g	Doing nails	Grooming	Personal Care	Grooming	Washing, dressing and grooming oneself	167	4	True	False	False	True	0.4381193012814037
video_on	action	23	meg	2	sm0GOaixy58	Capoeira	Participating_in_sports&Exercise&Recreation	Sports, Exercise, and Recreation	Participating in Sports, Exercise, or Recreation	Participating in martial arts	294	1	True	True	False	False	0.7660256497329101
video_on	action	23	meg	2	yT0ZYOfShrg	Waxing skis	Appliances&Tools&Toys	Household Activities	Appliances, Tools, and Toys	Appliance, tool, and toy set-up, repair, & maintenance (by self)	387	10	True	False	False	True	0.7604857661644928
video_on	action	23	meg	2	XcIasKN-mFE	Clean and jerk	Participating_in_sports&Exercise&Recreation	Sports, Exercise, and Recreation	Participating in Sports, Exercise, or Recreation	Weightlifting	84	1	True	True	True	True	0.4641662930953316
video_on	action	23	meg	2	4_9kdAe1jBE	Tug of war	Relaxing&Leisure	Socializing, Relaxing, and Leisure	Relaxing and Leisure	Playing games	382	3	True	False	True	False	0.4221211970434524
video_on	action	23	meg	2	enEm6krzS-I	Triple jump	Participating_in_sports&Exercise&Recreation	Sports, Exercise, and Recreation	Participating in Sports, Exercise, or Recreation	Playing sports	155	1	True	True	True	True	0.3850490762270055
video_on	action	23	meg	2	4kG2AqnDhz4	Playing drums	Arts&Entertainment	Socializing, Relaxing, and Leisure	Arts and Entertainment	Playing musical instruments	346	2	True	False	False	True	1.0309967232169583
video_on	action	23	meg	2	lZ8xKzlThAU	Doing motocross	Participating_in_sports&Exercise&Recreation	Sports, Exercise, and Recreation	Participating in Sports, Exercise, or Recreation	Playing sports	243	1	True	True	True	True	0.7845081285340711
video_on	action	23	meg	2	sxFRoNAs3AA	Ice fishing	Participating_in_sports&Exercise&Recreation	Sports, Exercise, and Recreation	Participating in Sports, Exercise, or Recreation	Fishing	324	1	True	True	False	False	0.6873705929028802
video_on	action	23	meg	2	pWYJoI8XuP8	Spread mulch	Lawn&Garden&Houseplants	Household Activities	Lawn, Garden, and Houseplants	Lawn, garden, and houseplant care	374	9	True	False	False	True	0.4970312780351378
video_on	action	23	meg	2	DRYif81LNS8	Plataform diving	Participating_in_sports&Exercise&Recreation	Sports, Exercise, and Recreation	Participating in Sports, Exercise, or Recreation	Participating in water sports	233	1	True	True	True	True	0.5337019143044017
video_on	action	23	meg	2	bfZZdTPYmos	Playing congas	Arts&Entertainment	Socializing, Relaxing, and Leisure	Arts and Entertainment	Playing musical instruments	345	2	True	False	False	True	0.6950036299531348
video_on	action	23	meg	2	UDlQbMVz-V8	Walking the dog	Animals&Pets	Household Activities	Animals and Pets	Walking / exercising / playing with animals	221	8	True	False	False	True	0.4080342197557911
video_on	action	23	meg	2	2B3sP2tyutA	Rock-paper-scissors	Relaxing&Leisure	Socializing, Relaxing, and Leisure	Relaxing and Leisure	Playing games	358	3	True	False	False	True	0.3662420891341753
video_on	action	23	meg	2	oCYYxO7HIuk	Swinging at the playground	Arts&Entertainment	Socializing, Relaxing, and Leisure	Arts and Entertainment	Park activities	378	2	True	False	False	True	0.440233887406066
video_on	action	23	meg	2	5Ei168lIcV4	Skateboarding	Participating_in_sports&Exercise&Recreation	Sports, Exercise, and Recreation	Participating in Sports, Exercise, or Recreation	Playing sports	176	1	True	True	False	False	0.7356085132923909
video_on	action	23	meg	2	LYC6_A0ePHc	Playing accordion	Arts&Entertainment	Socializing, Relaxing, and Leisure	Arts and Entertainment	Playing musical instruments	267	2	True	False	False	True	0.4667095319018699
video_on	action	23	meg	2	4Fo1ouz5OJk	Playing saxophone	Arts&Entertainment	Socializing, Relaxing, and Leisure	Arts and Entertainment	Playing musical instruments	109	2	True	False	False	True	0.4000129803316667
video_on	action	23	meg	2	NXFPk4vPeE8	Horseback riding	Participating_in_sports&Exercise&Recreation	Sports, Exercise, and Recreation	Participating in Sports, Exercise, or Recreation	Participating in equestrian sports	175	1	True	True	False	False	0.4881418659351766
video_on	action	23	meg	2	eaHdDZ-8WQo	Chopping wood	Interior_maintenance&Repair&Decoration	Household Activities	Interior Maintenance, Repair, & Decoration	Heating and cooling	110	7	True	False	False	True	0.5691834920435213
video_on	action	23	meg	2	T4TzTmhFCcI	Cutting the grass	Lawn&Garden&Houseplants	Household Activities	Lawn, Garden, and Houseplants	Lawn, garden, and houseplant care	301	9	True	False	False	True	0.4180489962454885
video_on	action	23	meg	2	ke3aUFKEeC0	Putting on makeup	Grooming	Personal Care	Grooming	Washing, dressing and grooming oneself	76	4	True	False	False	True	0.5914779613376595
video_on	action	23	meg	2	j7mQUcYsYSo	Brushing hair	Grooming	Personal Care	Grooming	Washing, dressing and grooming oneself	125	4	True	False	False	True	0.4408352086902596
video_on	action	23	meg	2	mgcUMG0qGPA	Blow-drying hair	Grooming	Personal Care	Grooming	Washing, dressing and grooming oneself	281	4	True	False	False	True	0.4259503940120339
video_on	action	23	meg	2	KE-o20EHB0w	Hammer throw	Participating_in_sports&Exercise&Recreation	Sports, Exercise, and Recreation	Participating in Sports, Exercise, or Recreation	Playing sports	224	1	True	True	True	True	0.4193971391650848
video_on	action	23	meg	2	hqv2oe5o6qQ	Using the balance beam	Participating_in_sports&Exercise&Recreation	Sports, Exercise, and Recreation	Participating in Sports, Exercise, or Recreation	Doing gymnastics	180	1	True	True	True	True	0.4101617861888371
video_on	action	23	meg	2	B1guEQLViRk	Making a sandwich	Food&Drink_prep.&Presentation&Clean-up	Eating and drinking Activities	Food & Drink Prep., Presentation, & Clean-up	Food and drink preparation	129	5	True	False	False	True	0.528711128863506
video_on	action	23	meg	2	4rWtiWhcaf0	Futsal	Participating_in_sports&Exercise&Recreation	Sports, Exercise, and Recreation	Participating in Sports, Exercise, or Recreation	Playing soccer	315	1	True	True	True	True	0.3558037917828187
video_on	action	23	meg	2	hNveH5KOp7I	Getting a tattoo	Grooming	Personal Care	Grooming	Washing, dressing and grooming	187	4	True	False	False	True	0.4577694059698842
video_on	action	23	meg	2	CUw6OjwZyTc	Playing ice hockey	Participating_in_sports&Exercise&Recreation	Sports, Exercise, and Recreation	Participating in Sports, Exercise, or Recreation	Playing hockey	347	1	True	True	True	True	0.3482262984034605
video_on	action	23	meg	2	gANH_gDbl9Q	Scuba diving	Participating_in_sports&Exercise&Recreation	Sports, Exercise, and Recreation	Participating in Sports, Exercise, or Recreation	Participating in water sports	364	1	True	True	True	True	0.3723407306242734
video_on	action	23	meg	2	caKsdDHPiUw	Using the rowing machine	Participating_in_sports&Exercise&Recreation	Sports, Exercise, and Recreation	Participating in Sports, Exercise, or Recreation	Using cardiovascular equipment	384	1	True	True	True	True	0.3724358190665953
video_on	action	23	meg	2	4Hc8BdHmcTo	Dodgeball	Participating_in_sports&Exercise&Recreation	Sports, Exercise, and Recreation	Participating in Sports, Exercise, or Recreation	Playing sports	161	1	True	True	True	True	0.3565122762229293
video_on	action	23	meg	2	H4UzuS8vK6A	Playing beach volleyball	Participating_in_sports&Exercise&Recreation	Sports, Exercise, and Recreation	Participating in Sports, Exercise, or Recreation	Playing volleyball	341	1	True	True	True	True	0.4827166922623291
video_on	action	23	meg	2	n8evyqi2QG4	Playing lacrosse	Participating_in_sports&Exercise&Recreation	Sports, Exercise, and Recreation	Participating in Sports, Exercise, or Recreation	Playing racquet sports	209	1	True	True	False	False	0.5629031260032207
video_on	action	23	meg	2	1ux4Hal_ezE	Rollerblading	Participating_in_sports&Exercise&Recreation	Sports, Exercise, and Recreation	Participating in Sports, Exercise, or Recreation	Playing sports	359	1	True	True	False	False	0.5229593338444829
video_on	action	23	meg	2	DxEPE1OeTiU	Tai chi	Participating_in_sports&Exercise&Recreation	Sports, Exercise, and Recreation	Participating in Sports, Exercise, or Recreation	Participating in martial arts	263	1	True	True	False	False	0.3376829509506933
video_on	action	23	meg	2	waNvTiwxg8w	Sharpening knives	Appliances&Tools&Toys	Household Activities	Appliances, Tools, and Toys	Appliance, tool, and toy set-up, repair, & maintenance (by self)	365	10	True	False	False	True	0.2032254607765935
video_on	action	23	meg	2	oB_Mdqbr-Fc	Starting a campfire	Participating_in_sports&Exercise&Recreation	Sports, Exercise, and Recreation	Participating in Sports, Exercise, or Recreation	Playing sports	153	1	True	True	False	False	0.3875325451372191
video_on	action	23	meg	2	qrs1IsgjzOA	Doing kickboxing	Participating_in_sports&Exercise&Recreation	Sports, Exercise, and Recreation	Participating in Sports, Exercise, or Recreation	Participating in martial arts	70	1	True	True	True	True	0.5233891939860769
video_on	action	23	meg	2	P2ZPJHi2NzQ	Painting furniture	Interior_maintenance&Repair&Decoration	Household Activities	Interior Maintenance, Repair, & Decoration	Building and repairing furniture	337	7	True	False	False	True	0.7716292274417356
video_on	action	23	meg	2	fpqLJoa0HDk	Playing blackjack	Arts&Entertainment	Socializing, Relaxing, and Leisure	Arts and Entertainment	Attending gambling establishments	343	2	True	False	False	True	0.0051208906224928
video_on	action	23	meg	2	3-8SrcbfU0w	Windsurfing	Participating_in_sports&Exercise&Recreation	Sports, Exercise, and Recreation	Participating in Sports, Exercise, or Recreation	Participating in water sports	237	1	True	True	True	True	0.4542441901867278
video_on	action	23	meg	2	vY2Uu9qD4ZM	Playing bagpipes	Arts&Entertainment	Socializing, Relaxing, and Leisure	Arts and Entertainment	Playing musical instruments	136	2	True	False	False	True	0.9183111686725168
video_on	action	23	meg	2	9W7AtOR2PBA	Doing karate	Participating_in_sports&Exercise&Recreation	Sports, Exercise, and Recreation	Participating in Sports, Exercise, or Recreation	Participating in martial arts	99	1	True	True	True	True	0.3984809996327385
video_on	action	23	meg	2	8wURZtiCVKk	Slacklining	Relaxing&Leisure	Socializing, Relaxing, and Leisure	Relaxing and Leisure	Playing games	371	3	True	False	False	True	0.7004269924364053
video_on	action	23	meg	2	BsljOtcaG0w	Kite flying	Relaxing&Leisure	Socializing, Relaxing, and Leisure	Relaxing and Leisure	Playing games	327	3	True	False	False	True	2.2205792547320016
video_on	action	23	meg	2	l6qQwQtI76s	Canoeing	Participating_in_sports&Exercise&Recreation	Sports, Exercise, and Recreation	Participating in Sports, Exercise, or Recreation	Boating	292	1	True	True	True	True	0.3803480841452256
video_on	action	23	meg	2	93UW_8at9tA	Using uneven bars	Participating_in_sports&Exercise&Recreation	Sports, Exercise, and Recreation	Participating in Sports, Exercise, or Recreation	Doing gymnastics	192	1	True	True	True	True	0.4545928478473797
video_on	action	23	meg	2	82M8jmiDe3A	Arm wrestling	Participating_in_sports&Exercise&Recreation	Sports, Exercise, and Recreation	Participating in Sports, Exercise, or Recreation	Wrestling	271	1	False	True	False	False	0.0
video_on	action	23	meg	2	YLTncEomE5g	Long jump	Participating_in_sports&Exercise&Recreation	Sports, Exercise, and Recreation	Participating in Sports, Exercise, or Recreation	Playing sports	80	1	True	True	False	False	0.005100363632664
video_on	action	23	meg	2	y2_pTDdmfWU	Powerbocking	Participating_in_sports&Exercise&Recreation	Sports, Exercise, and Recreation	Participating in Sports, Exercise, or Recreation	Playing sports	350	1	False	True	False	False	0.0
video_on	action	23	eeg	2	XsBuvIYJ_Nw	Plastering	Interior_maintenance&Repair&Decoration	Household Activities	Interior Maintenance, Repair, & Decoration	Interior arrangement, decoration, & repairs	340	7	True	False	False	True	0.6525022000132594
video_on	action	23	eeg	2	fMh7YDxHkcU	Playing accordion	Arts&Entertainment	Socializing, Relaxing, and Leisure	Arts and Entertainment	Playing musical instruments	267	2	True	False	False	True	0.6257337999995798
video_on	action	23	eeg	2	482WO74lG5s	Playing saxophone	Arts&Entertainment	Socializing, Relaxing, and Leisure	Arts and Entertainment	Playing musical instruments	109	2	True	False	False	True	0.7495527999999467
video_on	action	23	eeg	2	hN09JcB2xOs	Canoeing	Participating_in_sports&Exercise&Recreation	Sports, Exercise, and Recreation	Participating in Sports, Exercise, or Recreation	Boating	292	1	True	True	False	False	0.7761580999940634
video_on	action	23	eeg	2	lO4ng8bV3b4	Waxing skis	Appliances&Tools&Toys	Household Activities	Appliances, Tools, and Toys	Appliance, tool, and toy set-up, repair, & maintenance (by self)	387	10	True	False	False	True	0.904205400001956
video_on	action	23	eeg	2	yNkG0glzbJE	Cricket	Participating_in_sports&Exercise&Recreation	Sports, Exercise, and Recreation	Participating in Sports, Exercise, or Recreation	Playing sports	82	1	True	True	True	True	0.5487595000013243
video_on	action	23	eeg	2	syqHU6x7Jac	Cleaning windows	Housework	Household Activities	Housework	Interior cleaning	143	6	True	False	False	True	0.6350425000127871
video_on	action	23	eeg	2	I1ufUQ9Wo2A	Windsurfing	Participating_in_sports&Exercise&Recreation	Sports, Exercise, and Recreation	Participating in Sports, Exercise, or Recreation	Participating in water sports	237	1	True	True	True	True	0.5099222999997437
video_on	action	23	eeg	2	l_R7yVDvFls	Ironing clothes	Housework	Household Activities	Housework	Laundry	83	6	True	False	False	True	0.5724496000038926
video_on	action	23	eeg	2	vIxoaqV00rc	Discus throw	Participating_in_sports&Exercise&Recreation	Sports, Exercise, and Recreation	Participating in Sports, Exercise, or Recreation	Playing sports	92	1	True	True	True	True	0.6080180999997538
video_on	action	23	eeg	2	GR5lvZiDAn4	Ice fishing	Participating_in_sports&Exercise&Recreation	Sports, Exercise, and Recreation	Participating in Sports, Exercise, or Recreation	Fishing	324	1	True	True	False	False	0.5947242999973241
video_on	action	23	eeg	2	ZRqhMUZaOuY	Zumba	Participating_in_sports&Exercise&Recreation	Sports, Exercise, and Recreation	Participating in Sports, Exercise, or Recreation	Doing aerobics	69	1	True	True	True	True	0.6598105000157375
video_on	action	23	eeg	2	hJaYrePP5uA	Horseback riding	Participating_in_sports&Exercise&Recreation	Sports, Exercise, and Recreation	Participating in Sports, Exercise, or Recreation	Participating in equestrian sports	175	1	True	True	True	True	0.674655700015137
video_on	action	23	eeg	2	gG2xIZEpOq8	Calf roping	Participating_in_sports&Exercise&Recreation	Sports, Exercise, and Recreation	Participating in Sports, Exercise, or Recreation	Participating in rodeo competitions	290	1	True	True	True	True	0.6455126999935601
video_on	action	23	eeg	2	S26m6myDltg	Shot put	Participating_in_sports&Exercise&Recreation	Sports, Exercise, and Recreation	Participating in Sports, Exercise, or Recreation	Playing sports	169	1	True	True	True	True	0.9908742000116036
video_on	action	23	eeg	2	kOyzsifrUj0	Snatch	Participating_in_sports&Exercise&Recreation	Sports, Exercise, and Recreation	Participating in Sports, Exercise, or Recreation	Weightlifting	79	1	True	True	True	True	0.5912664000061341
video_on	action	23	eeg	2	NAjD9dlboBI	Having an ice cream	Food&Drink_prep.&Presentation&Clean-up	Eating and drinking Activities	Food & Drink Prep., Presentation, & Clean-up	Eating and Drinking	320	5	True	False	False	True	0.6267150999919977
video_on	action	23	eeg	2	xPCm5OEssfU	Smoking a cigarette	Relaxing&Leisure	Socializing, Relaxing, and Leisure	Relaxing and Leisure	Tobacco and drug use	201	3	True	False	False	True	0.7038456999871414
video_on	action	23	eeg	2	qhMV6PjZmEk	Preparing salad	Food&Drink_prep.&Presentation&Clean-up	Eating and drinking Activities	Food & Drink Prep., Presentation, & Clean-up	Food and drink preparation	96	5	True	False	False	True	0.7811690999951679
video_on	action	23	eeg	2	Guwl5G6Wr4Y	Playing flauta	Arts&Entertainment	Socializing, Relaxing, and Leisure	Arts and Entertainment	Playing musical instruments	149	2	True	False	False	True	0.5962989000254311
video_on	action	23	eeg	2	56P-RMk30i0	Hammer throw	Participating_in_sports&Exercise&Recreation	Sports, Exercise, and Recreation	Participating in Sports, Exercise, or Recreation	Playing sports	224	1	True	True	True	True	0.6132643999881111
video_on	action	23	eeg	2	7AINLOPtxaM	Getting a tattoo	Grooming	Personal Care	Grooming	Washing, dressing and grooming	187	4	True	False	False	True	0.7011905999970622
video_on	action	23	eeg	2	ySKIfVVTC-M	Washing hands	Grooming	Personal Care	Grooming	Washing, dressing and grooming oneself	173	4	True	False	False	True	0.6343527999997605
video_on	action	23	eeg	2	LJruJ4JfMqA	Playing polo	Participating_in_sports&Exercise&Recreation	Sports, Exercise, and Recreation	Participating in Sports, Exercise, or Recreation	Participating in equestrian sports	75	1	True	True	True	True	0.7069401000044309
video_on	action	23	eeg	2	JETxsiP-pXQ	Putting on shoes	Grooming	Personal Care	Grooming	Washing, dressing and grooming oneself	352	4	True	False	False	True	0.7719791000126861
video_on	action	23	eeg	2	jweOK9YVJss	Rafting	Participating_in_sports&Exercise&Recreation	Sports, Exercise, and Recreation	Participating in Sports, Exercise, or Recreation	Boating	353	1	True	True	True	True	0.4276165000046603
video_on	action	23	eeg	2	gxHx70qieUY	Getting a haircut	Grooming	Personal Care	Grooming	Washing, dressing and grooming	208	4	True	False	False	True	0.5864781999844126
video_on	action	23	eeg	2	lp-hTW-N0Hc	Assembling bicycle	Vehicles	Household Activities	Vehicles	Vehicle repair and maintenance (by self)	273	11	True	False	False	True	0.8282495999883395
video_on	action	23	eeg	2	3ALTSG548As	Waterskiing	Participating_in_sports&Exercise&Recreation	Sports, Exercise, and Recreation	Participating in Sports, Exercise, or Recreation	Participating in water sports	386	1	True	True	True	True	0.9790776999725496
video_on	action	23	eeg	2	A8sY6skAbV0	Archery	Participating_in_sports&Exercise&Recreation	Sports, Exercise, and Recreation	Participating in Sports, Exercise, or Recreation	Playing sports	250	1	True	True	True	True	0.6605615000007674
video_on	action	23	eeg	2	gUGKOZHYKjc	Throwing darts	Relaxing&Leisure	Socializing, Relaxing, and Leisure	Relaxing and Leisure	Playing games	380	3	True	False	True	False	0.7465566000028048
video_on	action	23	eeg	2	Rfzs5UZJpds	Snowboarding	Participating_in_sports&Exercise&Recreation	Sports, Exercise, and Recreation	Participating in Sports, Exercise, or Recreation	Skiing, ice skating, snowboarding	373	1	True	True	True	True	0.9012201000005008
video_on	action	23	eeg	2	CQA2E71iWUE	BMX	Participating_in_sports&Exercise&Recreation	Sports, Exercise, and Recreation	Participating in Sports, Exercise, or Recreation	Biking	274	1	True	True	True	True	0.9826027999806684
video_on	action	23	eeg	2	W4fhKmgtmIs	Painting furniture	Interior_maintenance&Repair&Decoration	Household Activities	Interior Maintenance, Repair, & Decoration	Building and repairing furniture	337	7	True	False	False	True	0.6856113999965601
video_on	action	23	eeg	2	_Y2QxouYvxc	Playing ice hockey	Participating_in_sports&Exercise&Recreation	Sports, Exercise, and Recreation	Participating in Sports, Exercise, or Recreation	Playing hockey	347	1	True	True	True	True	0.5651147000025958
video_on	action	23	eeg	2	Bq01P9QqZdM	Elliptical trainer	Participating_in_sports&Exercise&Recreation	Sports, Exercise, and Recreation	Participating in Sports, Exercise, or Recreation	Using cardiovascular equipment	308	1	True	True	True	True	0.7703993999748491
video_on	action	23	eeg	2	U0iNhqZDPpg	Swimming	Participating_in_sports&Exercise&Recreation	Sports, Exercise, and Recreation	Participating in Sports, Exercise, or Recreation	Participating in water sports	377	1	True	True	True	True	0.8670629999833182
video_on	action	23	eeg	2	Wuiodo0OvR4	Volleyball	Participating_in_sports&Exercise&Recreation	Sports, Exercise, and Recreation	Participating in Sports, Exercise, or Recreation	Playing volleyball	123	1	False	True	False	False	0.0
video_on	action	23	eeg	2	suEPUSm5k14	Shaving	Grooming	Personal Care	Grooming	Washing, dressing and grooming oneself	190	4	True	False	False	True	0.7656691999873146
video_on	action	23	eeg	2	XJVJ3L-97FA	Making an omelette	Food&Drink_prep.&Presentation&Clean-up	Eating and drinking Activities	Food & Drink Prep., Presentation, & Clean-up	Food and drink preparation	334	5	True	False	False	True	0.7380754000041634
video_on	action	23	eeg	2	tNfugq4aUmE	Shuffleboard	Relaxing&Leisure	Socializing, Relaxing, and Leisure	Relaxing and Leisure	Playing games	368	3	True	False	False	True	0.005072600004496
video_on	action	23	eeg	2	tmBTO0cA_qw	Sharpening knives	Appliances&Tools&Toys	Household Activities	Appliances, Tools, and Toys	Appliance, tool, and toy set-up, repair, & maintenance (by self)	365	10	True	False	False	True	0.6494490999903064
video_on	action	23	eeg	2	K-dsQCq1Ric	Polishing forniture	Housework	Household Activities	Housework	Interior cleaning	156	6	True	False	False	True	0.7179297000111546
video_on	action	23	eeg	2	zRxDlkaLIa4	Using uneven bars	Participating_in_sports&Exercise&Recreation	Sports, Exercise, and Recreation	Participating in Sports, Exercise, or Recreation	Doing gymnastics	192	1	True	True	True	True	0.9771799000154716
video_on	action	23	eeg	2	UuXDZ0t7dVA	Long jump	Participating_in_sports&Exercise&Recreation	Sports, Exercise, and Recreation	Participating in Sports, Exercise, or Recreation	Playing sports	80	1	True	True	True	True	0.0050711999938357
video_on	action	23	eeg	2	VWZCwGaTRxM	Doing nails	Grooming	Personal Care	Grooming	Washing, dressing and grooming oneself	167	4	True	False	False	True	0.7576056999969296
video_on	action	23	eeg	2	9hrra9AKadg	Playing water polo	Participating_in_sports&Exercise&Recreation	Sports, Exercise, and Recreation	Participating in Sports, Exercise, or Recreation	Participating in water sports	130	1	False	True	False	False	0.0
video_on	action	23	eeg	2	3FDzilXz-AI	Slacklining	Relaxing&Leisure	Socializing, Relaxing, and Leisure	Relaxing and Leisure	Playing games	371	3	True	False	True	False	0.0050766000058501
video_on	action	23	eeg	2	eHFSD5YOXKU	Washing dishes	Food&Drink_prep.&Presentation&Clean-up	Eating and drinking Activities	Food & Drink Prep., Presentation, & Clean-up	Kitchen and food clean-up	213	5	True	False	False	True	0.5374868999933824
video_on	action	23	eeg	2	6RgMcig_o4A	Trimming branches or hedges	Lawn&Garden&Houseplants	Household Activities	Lawn, Garden, and Houseplants	Lawn, garden, and houseplant care	381	9	True	False	False	True	0.7254508000041824
video_on	action	23	eeg	2	u-3Nk2SzskY	Bullfighting	Participating_in_sports&Exercise&Recreation	Sports, Exercise, and Recreation	Participating in Sports, Exercise, or Recreation	Participating in rodeo competitions	288	1	True	True	True	True	0.6368474000191782
video_on	action	23	eeg	2	DXxTfMXQn0Q	Playing piano	Arts&Entertainment	Socializing, Relaxing, and Leisure	Arts and Entertainment	Playing musical instruments	197	2	True	False	False	True	0.8969260999874678
video_on	action	23	eeg	2	bNElaisUTcA	Drum corps	Arts&Entertainment	Socializing, Relaxing, and Leisure	Arts and Entertainment	Playing musical instruments	307	2	False	False	False	True	0.0
video_on	action	23	eeg	2	u98Pebhamno	Springboard diving	Participating_in_sports&Exercise&Recreation	Sports, Exercise, and Recreation	Participating in Sports, Exercise, or Recreation	Participating in water sports	193	1	True	True	False	False	0.0050695000099949
video_on	action	23	eeg	2	u-0qHXSK-6k	Beer pong	Relaxing&Leisure	Socializing, Relaxing, and Leisure	Relaxing and Leisure	Playing games	280	3	True	False	False	True	0.6053468999743927
video_on	action	23	eeg	2	zZ57MYznOZI	Braiding hair	Grooming	Personal Care	Grooming	Washing, dressing and grooming oneself	285	4	True	False	False	True	0.521817300003022
video_on	action	23	eeg	2	vFmq_mWmzwk	Hurling	Participating_in_sports&Exercise&Recreation	Sports, Exercise, and Recreation	Participating in Sports, Exercise, or Recreation	Playing sports	323	1	True	True	True	True	0.7500287000148091
video_on	action	23	eeg	2	lp4_79ooAQo	Playing violin	Arts&Entertainment	Socializing, Relaxing, and Leisure	Arts and Entertainment	Playing musical instruments	234	2	True	False	False	True	0.8194382000074256
video_on	action	23	eeg	2	DklzujRHbRU	Doing karate	Participating_in_sports&Exercise&Recreation	Sports, Exercise, and Recreation	Participating in Sports, Exercise, or Recreation	Participating in martial arts	99	1	True	True	True	True	0.8120447999972384
video_on	action	23	eeg	2	1fd6XkePrEU	Grooming dog	Animals&Pets	Household Activities	Animals and Pets	Care for animals and pets (not veterinary care)	317	8	True	False	False	True	0.567381300003035
video_on	action	23	eeg	2	e1AxlrE5j8U	Arm wrestling	Participating_in_sports&Exercise&Recreation	Sports, Exercise, and Recreation	Participating in Sports, Exercise, or Recreation	Wrestling	271	1	True	True	True	True	0.6125231999903917
video_on	action	23	eeg	2	9sghU58TvBI	Putting in contact lenses	Grooming	Personal Care	Grooming	Washing, dressing and grooming oneself	351	4	True	False	False	True	0.7857145000016317
video_on	action	23	eeg	2	jbntVpbECCE	Knitting	Housework	Household Activities	Housework	Sewing, repairing, & maintaining textiles	329	6	True	False	False	True	0.7813967000111006
video_on	action	23	eeg	2	i8poMwDHMiQ	Rock climbing	Participating_in_sports&Exercise&Recreation	Sports, Exercise, and Recreation	Participating in Sports, Exercise, or Recreation	Climbing, spelunking, caving	188	1	True	True	True	True	0.9482419999840204
video_on	action	23	eeg	2	gl1sY6sHu5g	Polishing shoes	Housework	Household Activities	Housework	Sewing, repairing, & maintaining textiles	227	6	True	False	False	True	0.7799985999881756
video_on	action	23	eeg	2	35FV6YER-TM	Surfing	Participating_in_sports&Exercise&Recreation	Sports, Exercise, and Recreation	Participating in Sports, Exercise, or Recreation	Participating in water sports	376	1	True	True	True	True	0.5791568999993615
video_on	action	23	eeg	2	Y0SuLykVCmk	Dodgeball	Participating_in_sports&Exercise&Recreation	Sports, Exercise, and Recreation	Participating in Sports, Exercise, or Recreation	Playing sports	161	1	True	True	True	True	0.9789685000141616
video_on	action	23	eeg	2	HynVxcMFJZU	Croquet	Participating_in_sports&Exercise&Recreation	Sports, Exercise, and Recreation	Participating in Sports, Exercise, or Recreation	Playing sports	299	1	False	True	False	False	0.0
video_on	action	23	eeg	2	M5mlGEZ4rkk	Kite flying	Relaxing&Leisure	Socializing, Relaxing, and Leisure	Relaxing and Leisure	Playing games	327	3	True	False	False	True	0.5688383000087924
video_on	action	23	eeg	2	oiOWPclGkbI	Making a cake	Food&Drink_prep.&Presentation&Clean-up	Eating and drinking Activities	Food & Drink Prep., Presentation, & Clean-up	Food and drink preparation	332	5	True	False	False	True	0.7366613000049256
video_on	action	23	eeg	2	9hPi5vldBQk	Tumbling	Participating_in_sports&Exercise&Recreation	Sports, Exercise, and Recreation	Participating in Sports, Exercise, or Recreation	Doing gymnastics	258	1	True	True	True	True	0.7768062999821268
video_on	action	23	eeg	2	6RFUWfoQqTM	Hanging wallpaper	Interior_maintenance&Repair&Decoration	Household Activities	Interior Maintenance, Repair, & Decoration	Interior arrangement, decoration, & repairs	319	7	False	False	False	True	0.0
video_on	action	23	eeg	2	exQCLN4wTWA	Skiing	Participating_in_sports&Exercise&Recreation	Sports, Exercise, and Recreation	Participating in Sports, Exercise, or Recreation	Skiing, ice skating, snowboarding	369	1	True	True	True	True	0.6977976000052877
video_on	action	23	eeg	2	1Bwpl53mnLQ	Vacuuming floor	Housework	Household Activities	Housework	Interior cleaning	160	6	True	False	False	True	0.97671079999418
video_on	action	23	eeg	2	4gOOIjvqOzk	Swinging at the playground	Arts&Entertainment	Socializing, Relaxing, and Leisure	Arts and Entertainment	Park activities	378	2	True	False	False	True	0.9449098999903072
video_on	action	23	eeg	2	Mj5V_mUSGdo	Starting a campfire	Participating_in_sports&Exercise&Recreation	Sports, Exercise, and Recreation	Participating in Sports, Exercise, or Recreation	Playing sports	153	1	True	True	False	False	0.7100415000168141
video_on	action	23	eeg	2	jywZRVuJnYY	Fixing bicycle	Vehicles	Household Activities	Vehicles	Vehicle repair and maintenance (by self)	171	11	False	False	False	True	0.0
video_on	action	23	eeg	2	7WCacxzFdMk	Baton twirling	Participating_in_sports&Exercise&Recreation	Sports, Exercise, and Recreation	Participating in Sports, Exercise, or Recreation	Playing sports	277	1	True	True	True	True	0.7216900000057649
video_on	action	23	eeg	2	ZAoRatYhrAc	Futsal	Participating_in_sports&Exercise&Recreation	Sports, Exercise, and Recreation	Participating in Sports, Exercise, or Recreation	Playing soccer	315	1	True	True	False	False	0.9754784000106156
video_on	action	23	eeg	2	tTBwqNkjPLY	Powerbocking	Participating_in_sports&Exercise&Recreation	Sports, Exercise, and Recreation	Participating in Sports, Exercise, or Recreation	Playing sports	350	1	True	True	True	True	0.0050705000176094
video_on	action	23	eeg	2	-9tgBe6MGTA	Playing field hockey	Participating_in_sports&Exercise&Recreation	Sports, Exercise, and Recreation	Participating in Sports, Exercise, or Recreation	Playing hockey	94	1	True	True	True	True	0.8402341000037268
video_on	action	23	eeg	2	qIb8IB1UUzk	Mixing drinks	Food&Drink_prep.&Presentation&Clean-up	Eating and drinking Activities	Food & Drink Prep., Presentation, & Clean-up	Food and drink preparation	244	5	False	False	False	True	0.0
video_on	action	23	eeg	2	Bzirh12PNpg	Putting on makeup	Grooming	Personal Care	Grooming	Washing, dressing and grooming oneself	76	4	True	False	False	True	0.7528556000033859
video_on	action	23	eeg	2	SFkZGDOMyKM	Decorating the Christmas tree	Interior_maintenance&Repair&Decoration	Household Activities	Interior Maintenance, Repair, & Decoration	Interior arrangement, decoration, & repairs	302	7	False	False	False	True	0.0
video_on	action	23	eeg	2	5Wjs4OgYlxU	Making a lemonade	Food&Drink_prep.&Presentation&Clean-up	Eating and drinking Activities	Food & Drink Prep., Presentation, & Clean-up	Food and drink preparation	333	5	True	False	False	True	0.6281476999865845
video_on	action	23	eeg	2	0iwERk9sqWw	Rope skipping	Participating_in_sports&Exercise&Recreation	Sports, Exercise, and Recreation	Participating in Sports, Exercise, or Recreation	Working out	361	1	True	True	True	True	0.785845700011123
video_on	action	23	eeg	2	R-LnPzm3Ph4	Riding bumper cars	Relaxing&Leisure	Socializing, Relaxing, and Leisure	Relaxing and Leisure	Playing games	356	3	False	False	False	True	0.0
video_on	action	23	eeg	2	E7OCzz_XuiI	Rock-paper-scissors	Relaxing&Leisure	Socializing, Relaxing, and Leisure	Relaxing and Leisure	Playing games	358	3	True	False	False	True	0.005083399999421
video_on	action	23	eeg	2	UgWU9QC_5Oo	Tai chi	Participating_in_sports&Exercise&Recreation	Sports, Exercise, and Recreation	Participating in Sports, Exercise, or Recreation	Participating in martial arts	263	1	True	True	False	False	0.5335825000074692
video_on	action	23	eeg	2	naywtXGH_d0	Beach soccer	Participating_in_sports&Exercise&Recreation	Sports, Exercise, and Recreation	Participating in Sports, Exercise, or Recreation	Playing soccer	278	1	False	True	False	False	0.0
video_on	action	23	meg	3	NhJ6tMUP_hk	Disc dog	Animals&Pets	Household Activities	Animals and Pets	Walking / exercising / playing with animals	303	8	True	False	False	True	0.4616149038192816
video_on	action	23	meg	3	4pZeaB4TIqk	Fun sliding down	Arts&Entertainment	Socializing, Relaxing, and Leisure	Arts and Entertainment	Park activities	313	2	True	False	False	True	0.3336675013415515
video_on	action	23	meg	3	Ofp2wQOJwCw	Surfing	Participating_in_sports&Exercise&Recreation	Sports, Exercise, and Recreation	Participating in Sports, Exercise, or Recreation	Participating in water sports	376	1	True	True	False	False	0.4377440792159177
video_on	action	23	meg	3	ogNiTltxQ38	Discus throw	Participating_in_sports&Exercise&Recreation	Sports, Exercise, and Recreation	Participating in Sports, Exercise, or Recreation	Playing sports	92	1	True	True	True	True	0.3839668790460564
video_on	action	23	meg	3	xR_PIfH785E	Preparing salad	Food&Drink_prep.&Presentation&Clean-up	Eating and drinking Activities	Food & Drink Prep., Presentation, & Clean-up	Food and drink preparation	96	5	True	False	False	True	0.3665940673672594
video_on	action	23	meg	3	Uq-_sn1r96I	Playing badminton	Participating_in_sports&Exercise&Recreation	Sports, Exercise, and Recreation	Participating in Sports, Exercise, or Recreation	Playing racquet sports	268	1	True	True	True	True	0.4004736310453154
video_on	action	23	meg	3	Z9fDOdOgWIQ	Rock-paper-scissors	Relaxing&Leisure	Socializing, Relaxing, and Leisure	Relaxing and Leisure	Playing games	358	3	True	False	False	True	0.4129157289862633
video_on	action	23	meg	3	mdUdohshOG4	Playing field hockey	Participating_in_sports&Exercise&Recreation	Sports, Exercise, and Recreation	Participating in Sports, Exercise, or Recreation	Playing hockey	94	1	True	True	True	True	0.4058918618247844
video_on	action	23	meg	3	XzpKyvnrN4s	Ironing clothes	Housework	Household Activities	Housework	Laundry	83	6	True	False	False	True	0.3506998057710007
video_on	action	23	meg	3	Ml0WB98hbQE	Javelin throw	Participating_in_sports&Exercise&Recreation	Sports, Exercise, and Recreation	Participating in Sports, Exercise, or Recreation	Playing sports	116	1	True	True	True	True	0.3514113089186139
video_on	action	23	meg	3	aCQC5DZYZ7U	Sailing	Participating_in_sports&Exercise&Recreation	Sports, Exercise, and Recreation	Participating in Sports, Exercise, or Recreation	Participating in water sports	240	1	True	True	True	True	0.585202727059368
video_on	action	23	meg	3	IcaINW2UnOE	Tai chi	Participating_in_sports&Exercise&Recreation	Sports, Exercise, and Recreation	Participating in Sports, Exercise, or Recreation	Participating in martial arts	263	1	True	True	True	True	0.3847124932799488
video_on	action	23	meg	3	DlDJLtOLGt0	Hand car wash	Vehicles	Household Activities	Vehicles	Vehicle repair and maintenance (by self)	318	11	True	False	False	True	0.6815656691323966
video_on	action	23	meg	3	-eblhHOBVyU	Cheerleading	Arts&Entertainment	Socializing, Relaxing, and Leisure	Arts and Entertainment	Dancing	140	2	True	False	True	False	0.4567949756747111
video_on	action	23	meg	3	ZdhUEboz-cU	Archery	Participating_in_sports&Exercise&Recreation	Sports, Exercise, and Recreation	Participating in Sports, Exercise, or Recreation	Playing sports	250	1	True	True	False	False	0.3834144604043104
video_on	action	23	meg	3	UVK9Pnn_Pz4	Baking cookies	Food&Drink_prep.&Presentation&Clean-up	Eating and drinking Activities	Food & Drink Prep., Presentation, & Clean-up	Food and drink preparation	276	5	True	False	False	True	0.4638520483858883
video_on	action	23	meg	3	rZCoqn7p6jw	Snowboarding	Participating_in_sports&Exercise&Recreation	Sports, Exercise, and Recreation	Participating in Sports, Exercise, or Recreation	Skiing, ice skating, snowboarding	373	1	True	True	True	True	0.4958721044822596
video_on	action	23	meg	3	GupLoBUPUQ4	Spinning	Participating_in_sports&Exercise&Recreation	Sports, Exercise, and Recreation	Participating in Sports, Exercise, or Recreation	Using cardiovascular equipment	117	1	True	True	False	False	0.5141505204956047
video_on	action	23	meg	3	GnAaTdX-L3c	Rafting	Participating_in_sports&Exercise&Recreation	Sports, Exercise, and Recreation	Participating in Sports, Exercise, or Recreation	Boating	353	1	True	True	True	True	0.3835427542799152
video_on	action	23	meg	3	dyShRv0kh_w	Playing polo	Participating_in_sports&Exercise&Recreation	Sports, Exercise, and Recreation	Participating in Sports, Exercise, or Recreation	Participating in equestrian sports	75	1	True	True	True	True	0.4561915413360111
video_on	action	23	meg	3	Yq5WwO4KQYM	Longboarding	Participating_in_sports&Exercise&Recreation	Sports, Exercise, and Recreation	Participating in Sports, Exercise, or Recreation	Playing sports	331	1	True	True	True	True	0.5119483926100656
video_on	action	23	meg	3	0PhS5k5Nf0s	Playing water polo	Participating_in_sports&Exercise&Recreation	Sports, Exercise, and Recreation	Participating in Sports, Exercise, or Recreation	Participating in water sports	130	1	True	True	True	True	0.6488449771422893
video_on	action	23	meg	3	UjPxDOEdsX8	Starting a campfire	Participating_in_sports&Exercise&Recreation	Sports, Exercise, and Recreation	Participating in Sports, Exercise, or Recreation	Playing sports	153	1	True	True	False	False	0.7869568826863542
video_on	action	23	meg	3	be8Jxg71pdQ	Painting	Interior_maintenance&Repair&Decoration	Household Activities	Interior Maintenance, Repair, & Decoration	Interior arrangement, decoration, & repairs	217	7	True	False	False	True	0.8649807332549244
video_on	action	23	meg	3	9REea3LoNcg	Drum corps	Arts&Entertainment	Socializing, Relaxing, and Leisure	Arts and Entertainment	Playing musical instruments	307	2	True	False	False	True	0.6890978822484612
video_on	action	23	meg	3	SeP7VxM_fws	Tug of war	Relaxing&Leisure	Socializing, Relaxing, and Leisure	Relaxing and Leisure	Playing games	382	3	True	False	False	True	0.8095185052952729
video_on	action	23	meg	3	oytZJ61Ja0I	Playing bagpipes	Arts&Entertainment	Socializing, Relaxing, and Leisure	Arts and Entertainment	Playing musical instruments	136	2	True	False	False	True	0.4563080624211579
video_on	action	23	meg	3	O1Z2i2EfEFQ	Croquet	Participating_in_sports&Exercise&Recreation	Sports, Exercise, and Recreation	Participating in Sports, Exercise, or Recreation	Playing sports	299	1	True	True	True	True	0.3943768008030019
video_on	action	23	meg	3	K-O8w_7ht7Y	Playing kickball	Participating_in_sports&Exercise&Recreation	Sports, Exercise, and Recreation	Participating in Sports, Exercise, or Recreation	Playing sports	257	1	True	True	True	True	0.5299068284220994
video_on	action	23	meg	3	uzZD_zhTuFM	Running a marathon	Participating_in_sports&Exercise&Recreation	Sports, Exercise, and Recreation	Participating in Sports, Exercise, or Recreation	Running	362	1	True	True	True	True	0.6971951924497262
video_on	action	23	meg	3	sIuTKryU000	Snow tubing	Participating_in_sports&Exercise&Recreation	Sports, Exercise, and Recreation	Participating in Sports, Exercise, or Recreation	Skiing, ice skating, snowboarding	372	1	True	True	True	True	0.4842613514047116
video_on	action	23	meg	3	GLBOiXmJNQs	Welding	Appliances&Tools&Toys	Household Activities	Appliances, Tools, and Toys	Appliance, tool, and toy set-up, repair, & maintenance (by self)	388	10	True	False	False	True	0.5622731272596866
video_on	action	23	meg	3	Z-4TpMKAp2s	Playing racquetball	Participating_in_sports&Exercise&Recreation	Sports, Exercise, and Recreation	Participating in Sports, Exercise, or Recreation	Playing racquet sports	253	1	True	True	True	True	0.4039348508231342
video_on	action	23	meg	3	xeYDmMEkv80	Having an ice cream	Food&Drink_prep.&Presentation&Clean-up	Eating and drinking Activities	Food & Drink Prep., Presentation, & Clean-up	Eating and Drinking	320	5	True	False	False	True	0.4739767048740759
video_on	action	23	meg	3	hDCp47nWfnY	Raking leaves	Lawn&Garden&Houseplants	Household Activities	Lawn, Garden, and Houseplants	Lawn, garden, and houseplant care	354	9	True	False	False	True	0.6426479266956449
video_on	action	23	meg	3	D9TArBWZleI	Swinging at the playground	Arts&Entertainment	Socializing, Relaxing, and Leisure	Arts and Entertainment	Park activities	378	2	True	False	False	True	0.5149284346261993
video_on	action	23	meg	3	KCTi5yRyw8k	Playing ice hockey	Participating_in_sports&Exercise&Recreation	Sports, Exercise, and Recreation	Participating in Sports, Exercise, or Recreation	Playing hockey	347	1	True	True	False	False	0.7703773804241791
video_on	action	23	meg	3	riIJB_nuVyM	Walking the dog	Animals&Pets	Household Activities	Animals and Pets	Walking / exercising / playing with animals	221	8	True	False	False	True	0.4352811373537406
video_on	action	23	meg	3	rUaySwGmJd0	Bullfighting	Participating_in_sports&Exercise&Recreation	Sports, Exercise, and Recreation	Participating in Sports, Exercise, or Recreation	Participating in rodeo competitions	288	1	True	True	True	True	0.436979447316844
video_on	action	23	meg	3	F2GAtSWIsdg	Building sandcastles	Arts&Entertainment	Socializing, Relaxing, and Leisure	Arts and Entertainment	Beach activities	286	2	True	False	False	True	0.4349246310885064
video_on	action	23	meg	3	axGpGvXdfjk	Volleyball	Participating_in_sports&Exercise&Recreation	Sports, Exercise, and Recreation	Participating in Sports, Exercise, or Recreation	Playing volleyball	123	1	True	True	True	True	0.3472334542311728
video_on	action	23	meg	3	5TAn9Q7jb34	Playing violin	Arts&Entertainment	Socializing, Relaxing, and Leisure	Arts and Entertainment	Playing musical instruments	234	2	False	False	False	True	0.0
video_on	action	23	meg	3	WL6vQM6hcqQ	Laying tile	Interior_maintenance&Repair&Decoration	Household Activities	Interior Maintenance, Repair, & Decoration	Interior arrangement, decoration, & repairs	330	7	True	False	False	True	0.0050991561147384
video_on	action	23	meg	3	zAGnnum1V20	Playing congas	Arts&Entertainment	Socializing, Relaxing, and Leisure	Arts and Entertainment	Playing musical instruments	345	2	True	False	False	True	0.747595394088421
video_on	action	23	meg	3	biw7n9lrIlo	Beer pong	Relaxing&Leisure	Socializing, Relaxing, and Leisure	Relaxing and Leisure	Playing games	280	3	True	False	False	True	1.2429974899278022
video_on	action	23	meg	3	kxeNM4mpsqA	Capoeira	Participating_in_sports&Exercise&Recreation	Sports, Exercise, and Recreation	Participating in Sports, Exercise, or Recreation	Participating in martial arts	294	1	True	True	False	False	0.4924854461569339
video_on	action	23	meg	3	crysuTO9--o	Waterskiing	Participating_in_sports&Exercise&Recreation	Sports, Exercise, and Recreation	Participating in Sports, Exercise, or Recreation	Participating in water sports	386	1	False	True	False	False	0.0
video_on	action	23	meg	3	E6A8TpnBgLA	Washing hands	Grooming	Personal Care	Grooming	Washing, dressing and grooming oneself	173	4	True	False	False	True	0.4601774078910239
video_on	action	23	meg	3	Q0dj3efpeIg	Decorating the Christmas tree	Interior_maintenance&Repair&Decoration	Household Activities	Interior Maintenance, Repair, & Decoration	Interior arrangement, decoration, & repairs	302	7	True	False	False	True	0.7163804202573374
video_on	action	23	meg	3	E9_jKDkPRRM	Kayaking	Participating_in_sports&Exercise&Recreation	Sports, Exercise, and Recreation	Participating in Sports, Exercise, or Recreation	Participating in water sports	254	1	True	True	False	False	0.7169569883262739
video_on	action	23	meg	3	aje-zzu1dnw	Powerbocking	Participating_in_sports&Exercise&Recreation	Sports, Exercise, and Recreation	Participating in Sports, Exercise, or Recreation	Playing sports	350	1	True	True	False	False	0.4195384134654887
video_on	action	23	meg	3	_U2vXd867-Q	Cleaning shoes	Housework	Household Activities	Housework	Sewing, repairing, & maintaining textiles	134	6	True	False	False	True	0.622703802480828
video_on	action	23	meg	3	xzVMFHq8V9Y	Throwing darts	Relaxing&Leisure	Socializing, Relaxing, and Leisure	Relaxing and Leisure	Playing games	380	3	True	False	False	True	0.4848518053768202
video_on	action	23	meg	3	t3UztIyZUaw	Shuffleboard	Relaxing&Leisure	Socializing, Relaxing, and Leisure	Relaxing and Leisure	Playing games	368	3	True	False	False	True	0.4209457226097584
video_on	action	23	meg	3	0g63VtoEoZI	Playing flauta	Arts&Entertainment	Socializing, Relaxing, and Leisure	Arts and Entertainment	Playing musical instruments	149	2	True	False	False	True	0.701089592941571
video_on	action	23	meg	3	2umQNhxFF3o	Doing kickboxing	Participating_in_sports&Exercise&Recreation	Sports, Exercise, and Recreation	Participating in Sports, Exercise, or Recreation	Participating in martial arts	70	1	True	True	True	True	0.5356758298585191
video_on	action	23	meg	3	CJEd_q6E3fQ	Plastering	Interior_maintenance&Repair&Decoration	Household Activities	Interior Maintenance, Repair, & Decoration	Interior arrangement, decoration, & repairs	340	7	True	False	False	True	0.3916409701341763
video_on	action	23	meg	3	-1xTaoEo5Zc	Shot put	Participating_in_sports&Exercise&Recreation	Sports, Exercise, and Recreation	Participating in Sports, Exercise, or Recreation	Playing sports	169	1	True	True	True	True	0.3917792257270776
video_on	action	23	meg	3	Sm2UJaPknFI	Cutting the grass	Lawn&Garden&Houseplants	Household Activities	Lawn, Garden, and Houseplants	Lawn, garden, and houseplant care	301	9	True	False	False	True	0.3338120961561799
video_on	action	23	meg	3	iRVP1ljkoBs	Triple jump	Participating_in_sports&Exercise&Recreation	Sports, Exercise, and Recreation	Participating in Sports, Exercise, or Recreation	Playing sports	155	1	True	True	True	True	0.6162685781018808
video_on	action	23	meg	3	AKxh9GCJhpQ	Hanging wallpaper	Interior_maintenance&Repair&Decoration	Household Activities	Interior Maintenance, Repair, & Decoration	Interior arrangement, decoration, & repairs	319	7	True	False	False	True	0.7044572336017154
video_on	action	23	meg	3	EKRW8MZRzZE	Plataform diving	Participating_in_sports&Exercise&Recreation	Sports, Exercise, and Recreation	Participating in Sports, Exercise, or Recreation	Participating in water sports	233	1	True	True	False	False	0.902259633759968
video_on	action	23	meg	3	cCzEUO7JpzA	Shoveling snow	Exterior_maintenance&Repair&Decoration	Household Activities	Exterior Maintenance, Repair, & Decoration	Exterior cleaning	183	12	True	False	False	True	0.8143604697543196
video_on	action	23	meg	3	BGW_2xjQA1A	Rope skipping	Participating_in_sports&Exercise&Recreation	Sports, Exercise, and Recreation	Participating in Sports, Exercise, or Recreation	Working out	361	1	True	True	True	True	0.3747970314580016
video_on	action	23	meg	3	a0dWpIiOexw	Fixing the roof	Exterior_maintenance&Repair&Decoration	Household Activities	Exterior Maintenance, Repair, & Decoration	Exterior repair, improvements, & decoration	311	12	True	False	False	True	0.3528789916308597
video_on	action	23	meg	3	QAkDJWU6MGQ	Riding bumper cars	Relaxing&Leisure	Socializing, Relaxing, and Leisure	Relaxing and Leisure	Playing games	356	3	True	False	False	True	0.5351913315244019
video_on	action	23	meg	3	9PoagK33Xrc	Knitting	Housework	Household Activities	Housework	Sewing, repairing, & maintaining textiles	329	6	True	False	False	True	0.4312487830757163
video_on	action	23	meg	3	VYN6Z-vrDgQ	Pole vault	Participating_in_sports&Exercise&Recreation	Sports, Exercise, and Recreation	Participating in Sports, Exercise, or Recreation	Playing sports	106	1	True	True	True	True	0.4232329772785306
video_on	action	23	meg	3	1crwK3JHvxs	Hand washing clothes	Housework	Household Activities	Housework	Laundry	232	6	True	False	False	True	0.3755649839295074
video_on	action	23	meg	3	ISBB1-iRVQE	Bathing dog	Animals&Pets	Household Activities	Animals and Pets	Care for animals and pets (not veterinary care)	90	8	True	False	False	True	0.6716622820240445
video_on	action	23	meg	3	jEzya8zXkmk	Spread mulch	Lawn&Garden&Houseplants	Household Activities	Lawn, Garden, and Houseplants	Lawn, garden, and houseplant care	374	9	True	False	False	True	0.3757385580684058
video_on	action	23	meg	3	8-Nm32X5Kb0	Shaving	Grooming	Personal Care	Grooming	Washing, dressing and grooming oneself	190	4	True	False	False	True	0.472118102828972
video_on	action	23	meg	3	amcjr8bqTqo	Using the rowing machine	Participating_in_sports&Exercise&Recreation	Sports, Exercise, and Recreation	Participating in Sports, Exercise, or Recreation	Using cardiovascular equipment	384	1	True	True	True	True	0.520743319997564
video_on	action	23	meg	3	AiliCxRgZAc	High jump	Participating_in_sports&Exercise&Recreation	Sports, Exercise, and Recreation	Participating in Sports, Exercise, or Recreation	Playing sports	195	1	True	True	True	True	0.4502710021333769
video_on	action	23	meg	3	uqAFtPVzEEs	Beach soccer	Participating_in_sports&Exercise&Recreation	Sports, Exercise, and Recreation	Participating in Sports, Exercise, or Recreation	Playing soccer	278	1	True	True	True	True	0.3515562055981718
video_on	action	23	meg	3	O-R-F3p7v54	Skiing	Participating_in_sports&Exercise&Recreation	Sports, Exercise, and Recreation	Participating in Sports, Exercise, or Recreation	Skiing, ice skating, snowboarding	369	1	True	True	True	True	0.4093147442908957
video_on	action	23	meg	3	-151cWqpxUA	Springboard diving	Participating_in_sports&Exercise&Recreation	Sports, Exercise, and Recreation	Participating in Sports, Exercise, or Recreation	Participating in water sports	193	1	True	True	True	True	0.5789748860988766
video_on	action	23	meg	3	MMTmOJL1SBA	Doing crunches	Participating_in_sports&Exercise&Recreation	Sports, Exercise, and Recreation	Participating in Sports, Exercise, or Recreation	Working out	305	1	True	True	True	True	0.6247471477254294
video_on	action	23	meg	3	bKQhcQQL3bA	Hopscotch	Relaxing&Leisure	Socializing, Relaxing, and Leisure	Relaxing and Leisure	Playing games	241	3	True	False	False	True	0.4890849018702283
video_on	action	23	meg	3	mwpPuGeN3-I	Using uneven bars	Participating_in_sports&Exercise&Recreation	Sports, Exercise, and Recreation	Participating in Sports, Exercise, or Recreation	Doing gymnastics	192	1	True	True	False	False	0.4712891730014235
video_on	action	23	meg	3	3ZyTmTwzZMs	Baton twirling	Participating_in_sports&Exercise&Recreation	Sports, Exercise, and Recreation	Participating in Sports, Exercise, or Recreation	Playing sports	277	1	True	True	True	True	0.5075039884541184
video_on	action	23	meg	3	Uu_teYsAXbE	Making a sandwich	Food&Drink_prep.&Presentation&Clean-up	Eating and drinking Activities	Food & Drink Prep., Presentation, & Clean-up	Food and drink preparation	129	5	True	False	False	True	0.4807693410548381
video_on	action	23	meg	3	JcC5Pj8KBvM	Elliptical trainer	Participating_in_sports&Exercise&Recreation	Sports, Exercise, and Recreation	Participating in Sports, Exercise, or Recreation	Using cardiovascular equipment	308	1	True	True	True	True	0.3610707866027951
video_on	action	23	meg	3	2IFyw0NxlAY	Mixing drinks	Food&Drink_prep.&Presentation&Clean-up	Eating and drinking Activities	Food & Drink Prep., Presentation, & Clean-up	Food and drink preparation	244	5	True	False	False	True	0.4816411361680366
video_on	action	23	meg	3	WaUS4MNKPnQ	Drinking coffee	Food&Drink_prep.&Presentation&Clean-up	Eating and drinking Activities	Food & Drink Prep., Presentation, & Clean-up	Eating and Drinking	68	5	True	False	False	True	0.4093307433067821
video_on	action	23	meg	3	caeey77RMw4	Using the balance beam	Participating_in_sports&Exercise&Recreation	Sports, Exercise, and Recreation	Participating in Sports, Exercise, or Recreation	Doing gymnastics	180	1	True	True	True	True	0.3696746314526535
video_on	action	23	meg	3	e0QjP1gC-TA	Dodgeball	Participating_in_sports&Exercise&Recreation	Sports, Exercise, and Recreation	Participating in Sports, Exercise, or Recreation	Playing sports	161	1	True	True	False	False	0.6181434809695929
video_on	action	23	meg	3	CibwlteUo78	Doing step aerobics	Participating_in_sports&Exercise&Recreation	Sports, Exercise, and Recreation	Participating in Sports, Exercise, or Recreation	Doing aerobics	230	1	True	True	True	True	0.5064531855168752
video_on	action	23	meg	3	1a6f-agf8sQ	Making a lemonade	Food&Drink_prep.&Presentation&Clean-up	Eating and drinking Activities	Food & Drink Prep., Presentation, & Clean-up	Food and drink preparation	333	5	True	False	False	True	0.4105551203247159
video_on	action	23	meg	3	KE6EEyfA8-g	Cleaning windows	Housework	Household Activities	Housework	Interior cleaning	143	6	False	False	False	True	0.0
video_on	action	23	eeg	3	id6TXNy-TqI	Using the balance beam	Participating_in_sports&Exercise&Recreation	Sports, Exercise, and Recreation	Participating in Sports, Exercise, or Recreation	Doing gymnastics	180	1	True	True	True	True	0.5537394999992102
video_on	action	23	eeg	3	FlHCKsR0pnc	Swinging at the playground	Arts&Entertainment	Socializing, Relaxing, and Leisure	Arts and Entertainment	Park activities	378	2	True	False	False	True	0.7041462000051979
video_on	action	23	eeg	3	UQTx00IOujE	Tug of war	Relaxing&Leisure	Socializing, Relaxing, and Leisure	Relaxing and Leisure	Playing games	382	3	True	False	True	False	0.6636110999970697
video_on	action	23	eeg	3	9-1FmwihZ1I	Wakeboarding	Participating_in_sports&Exercise&Recreation	Sports, Exercise, and Recreation	Participating in Sports, Exercise, or Recreation	Participating in water sports	385	1	True	True	True	True	0.5578096999961417
