event_name	task	subject	session	run	video_id	class_name	raw_superclass_name	superclass_level0	superclass_level1	superclass_level2	class_id	superclass_id	is_resp	stim_is_sports	resp_is_sports	resp_is_right	resp_time
video_on	action	4	meg	1	sXarwBuVKR0	Cricket	Participating_in_sports&Exercise&Recreation	Sports, Exercise, and Recreation	Participating in Sports, Exercise, or Recreation	Playing sports	82	1	True	True	True	True	0.5185743976471713
video_on	action	4	meg	1	vrqUaBn5k6s	Sailing	Participating_in_sports&Exercise&Recreation	Sports, Exercise, and Recreation	Participating in Sports, Exercise, or Recreation	Participating in water sports	240	1	True	True	False	False	0.5275881794368615
video_on	action	4	meg	1	6L3r04yfeG4	Putting on makeup	Grooming	Personal Care	Grooming	Washing, dressing and grooming oneself	76	4	True	False	False	True	0.4076704687031451
video_on	action	4	meg	1	77upFFRqTaQ	Grooming horse	Animals&Pets	Household Activities	Animals and Pets	Walking / exercising / playing with animals	95	8	True	False	False	True	0.6078896249382524
video_on	action	4	meg	1	43hQNmW-6_k	Breakdancing	Arts&Entertainment	Socializing, Relaxing, and Leisure	Arts and Entertainment	Dancing	236	2	True	False	True	False	0.4239954961230978
video_on	action	4	meg	1	yd3Q9NOUQAc	Starting a campfire	Participating_in_sports&Exercise&Recreation	Sports, Exercise, and Recreation	Participating in Sports, Exercise, or Recreation	Playing sports	153	1	True	True	False	False	0.3762644123198697
video_on	action	4	meg	1	zp3tRZJA1gA	Fun sliding down	Arts&Entertainment	Socializing, Relaxing, and Leisure	Arts and Entertainment	Park activities	313	2	True	False	False	True	0.5683829378103837
video_on	action	4	meg	1	WYKqtMQuyXc	Washing hands	Grooming	Personal Care	Grooming	Washing, dressing and grooming oneself	173	4	True	False	False	True	0.4085223405127181
video_on	action	4	meg	1	6_0Nl7F4Hbg	Walking the dog	Animals&Pets	Household Activities	Animals and Pets	Walking / exercising / playing with animals	221	8	True	False	False	True	0.3046072620491031
video_on	action	4	meg	1	xrFQsX2nS4o	Smoking hookah	Relaxing&Leisure	Socializing, Relaxing, and Leisure	Relaxing and Leisure	Tobacco and drug use	189	3	True	False	False	True	0.639491291862214
video_on	action	4	meg	1	3szzH8rx8mA	Discus throw	Participating_in_sports&Exercise&Recreation	Sports, Exercise, and Recreation	Participating in Sports, Exercise, or Recreation	Playing sports	92	1	True	True	True	True	0.6969479624676751
video_on	action	4	meg	1	XxUZ7wKS9vM	Canoeing	Participating_in_sports&Exercise&Recreation	Sports, Exercise, and Recreation	Participating in Sports, Exercise, or Recreation	Boating	292	1	True	True	True	True	0.3230242354766233
video_on	action	4	meg	1	bzPLTlx-SMg	Chopping wood	Interior_maintenance&Repair&Decoration	Household Activities	Interior Maintenance, Repair, & Decoration	Heating and cooling	110	7	True	False	False	True	0.3693513307080138
video_on	action	4	meg	1	A8ygnicXlPQ	Raking leaves	Lawn&Garden&Houseplants	Household Activities	Lawn, Garden, and Houseplants	Lawn, garden, and houseplant care	354	9	True	False	False	True	0.4028946133184945
video_on	action	4	meg	1	F60KxiL6cmM	Playing flauta	Arts&Entertainment	Socializing, Relaxing, and Leisure	Arts and Entertainment	Playing musical instruments	149	2	True	False	False	True	0.3135150881134905
video_on	action	4	meg	1	ZHdlTi9Du1c	Playing congas	Arts&Entertainment	Socializing, Relaxing, and Leisure	Arts and Entertainment	Playing musical instruments	345	2	True	False	False	True	0.3210494142986135
video_on	action	4	meg	1	DimMVpIqC8I	Dodgeball	Participating_in_sports&Exercise&Recreation	Sports, Exercise, and Recreation	Participating in Sports, Exercise, or Recreation	Playing sports	161	1	True	True	True	True	0.3460437920002732
video_on	action	4	meg	1	va1EfdPcqm0	Using the pommel horse	Participating_in_sports&Exercise&Recreation	Sports, Exercise, and Recreation	Participating in Sports, Exercise, or Recreation	Doing gymnastics	114	1	True	True	True	True	0.4361843266960932
video_on	action	4	meg	1	WfalVDHxlcs	Doing step aerobics	Participating_in_sports&Exercise&Recreation	Sports, Exercise, and Recreation	Participating in Sports, Exercise, or Recreation	Doing aerobics	230	1	True	True	True	True	0.4203948133072117
video_on	action	4	meg	1	sacEj2hJGAY	Playing field hockey	Participating_in_sports&Exercise&Recreation	Sports, Exercise, and Recreation	Participating in Sports, Exercise, or Recreation	Playing hockey	94	1	True	True	True	True	0.4436984277126612
video_on	action	4	meg	1	ubZQuoObWtk	Pole vault	Participating_in_sports&Exercise&Recreation	Sports, Exercise, and Recreation	Participating in Sports, Exercise, or Recreation	Playing sports	106	1	True	True	True	True	0.4185102506889961
video_on	action	4	meg	1	AuEdwMa6qSo	Carving jack-o-lanterns	Interior_maintenance&Repair&Decoration	Household Activities	Interior Maintenance, Repair, & Decoration	Interior arrangement, decoration, & repairs	295	7	True	False	False	True	0.546721787774004
video_on	action	4	meg	1	4G2yRpUeyAQ	Javelin throw	Participating_in_sports&Exercise&Recreation	Sports, Exercise, and Recreation	Participating in Sports, Exercise, or Recreation	Playing sports	116	1	True	True	True	True	0.3789127012569224
video_on	action	4	meg	1	lOUb2aAAZwE	Cleaning shoes	Housework	Household Activities	Housework	Sewing, repairing, & maintaining textiles	134	6	True	False	False	True	0.5869209603697527
video_on	action	4	meg	1	tC9n_gkaT94	Playing bagpipes	Arts&Entertainment	Socializing, Relaxing, and Leisure	Arts and Entertainment	Playing musical instruments	136	2	True	False	False	True	0.506546462784172
video_on	action	4	meg	1	ezeyCsZF_YA	Using the balance beam	Participating_in_sports&Exercise&Recreation	Sports, Exercise, and Recreation	Participating in Sports, Exercise, or Recreation	Doing gymnastics	180	1	True	True	True	True	0.4031216181319905
video_on	action	4	meg	1	KMFyixfGxm0	Shoveling snow	Exterior_maintenance&Repair&Decoration	Household Activities	Exterior Maintenance, Repair, & Decoration	Exterior cleaning	183	12	True	False	False	True	0.3307176461530616
video_on	action	4	meg	1	MHCSzYx3Za4	Snow tubing	Participating_in_sports&Exercise&Recreation	Sports, Exercise, and Recreation	Participating in Sports, Exercise, or Recreation	Skiing, ice skating, snowboarding	372	1	True	True	True	True	0.323637027744553
video_on	action	4	meg	1	QyanjFIx1z0	Having an ice cream	Food&Drink_prep.&Presentation&Clean-up	Eating and drinking Activities	Food & Drink Prep., Presentation, & Clean-up	Eating and Drinking	320	5	True	False	False	True	0.5952066362660844
video_on	action	4	meg	1	GTZWrT7DzV4	Vacuuming floor	Housework	Household Activities	Housework	Interior cleaning	160	6	True	False	False	True	0.3304707180359401
video_on	action	4	meg	1	RsZJI4IPX3A	Swimming	Participating_in_sports&Exercise&Recreation	Sports, Exercise, and Recreation	Participating in Sports, Exercise, or Recreation	Participating in water sports	377	1	True	True	True	True	0.4303938926022965
video_on	action	4	meg	1	NnHnMgm_vko	Hitting a pinata	Relaxing&Leisure	Socializing, Relaxing, and Leisure	Relaxing and Leisure	Playing games	321	3	True	False	False	True	0.5875678637239616
video_on	action	4	meg	1	JwDtRXS6UZo	Scuba diving	Participating_in_sports&Exercise&Recreation	Sports, Exercise, and Recreation	Participating in Sports, Exercise, or Recreation	Participating in water sports	364	1	True	True	True	True	0.4996116466791136
video_on	action	4	meg	1	xKpJ0dRmC4I	Hopscotch	Relaxing&Leisure	Socializing, Relaxing, and Leisure	Relaxing and Leisure	Playing games	241	3	True	False	True	False	0.3987653594231233
video_on	action	4	meg	1	aZlDaYi70p4	Croquet	Participating_in_sports&Exercise&Recreation	Sports, Exercise, and Recreation	Participating in Sports, Exercise, or Recreation	Playing sports	299	1	True	True	True	True	0.4788859859254444
video_on	action	4	meg	1	eVyPxPi95Pg	Kite flying	Relaxing&Leisure	Socializing, Relaxing, and Leisure	Relaxing and Leisure	Playing games	327	3	True	False	True	False	0.4870913649065187
video_on	action	4	meg	1	LFwLtdr18ck	Laying tile	Interior_maintenance&Repair&Decoration	Household Activities	Interior Maintenance, Repair, & Decoration	Interior arrangement, decoration, & repairs	330	7	True	False	False	True	0.6112388516339706
video_on	action	4	meg	1	2MKq2hicvDg	Using uneven bars	Participating_in_sports&Exercise&Recreation	Sports, Exercise, and Recreation	Participating in Sports, Exercise, or Recreation	Doing gymnastics	192	1	True	True	True	True	0.423325952651794
video_on	action	4	meg	1	XE3XZrHzOok	Arm wrestling	Participating_in_sports&Exercise&Recreation	Sports, Exercise, and Recreation	Participating in Sports, Exercise, or Recreation	Wrestling	271	1	True	True	True	True	0.4845167317980667
video_on	action	4	meg	1	kp3vn_USmzI	Calf roping	Participating_in_sports&Exercise&Recreation	Sports, Exercise, and Recreation	Participating in Sports, Exercise, or Recreation	Participating in rodeo competitions	290	1	True	True	False	False	0.3736538568919059
video_on	action	4	meg	1	2qlitUl8_Rs	BMX	Participating_in_sports&Exercise&Recreation	Sports, Exercise, and Recreation	Participating in Sports, Exercise, or Recreation	Biking	274	1	True	True	True	True	0.4232381090405397
video_on	action	4	meg	1	OMcoCyyRNrI	Shot put	Participating_in_sports&Exercise&Recreation	Sports, Exercise, and Recreation	Participating in Sports, Exercise, or Recreation	Playing sports	169	1	True	True	True	True	0.3804211362003116
video_on	action	4	meg	1	hZYxfbn5fCk	Mowing the lawn	Lawn&Garden&Houseplants	Household Activities	Lawn, Garden, and Houseplants	Lawn, garden, and houseplant care	218	9	True	False	False	True	0.5493492478271946
video_on	action	4	meg	1	njz-8-eSSIA	Trimming branches or hedges	Lawn&Garden&Houseplants	Household Activities	Lawn, Garden, and Houseplants	Lawn, garden, and houseplant care	381	9	True	False	False	True	0.6394952161354013
video_on	action	4	meg	1	4sE_b8JStT8	Making a sandwich	Food&Drink_prep.&Presentation&Clean-up	Eating and drinking Activities	Food & Drink Prep., Presentation, & Clean-up	Food and drink preparation	129	5	True	False	False	True	0.3755782661028206
video_on	action	4	meg	1	84f5YnUbI4Q	Belly dance	Arts&Entertainment	Socializing, Relaxing, and Leisure	Arts and Entertainment	Dancing	247	2	True	False	False	True	0.5804501155507751
video_on	action	4	meg	1	FFURUajsgQo	Tug of war	Relaxing&Leisure	Socializing, Relaxing, and Leisure	Relaxing and Leisure	Playing games	382	3	True	False	True	False	0.3741265823628055
video_on	action	4	meg	1	i-i0NUWzVCU	Beer pong	Relaxing&Leisure	Socializing, Relaxing, and Leisure	Relaxing and Leisure	Playing games	280	3	True	False	False	True	0.5420736226078589
video_on	action	4	meg	1	7plvPFoX-HQ	Ice fishing	Participating_in_sports&Exercise&Recreation	Sports, Exercise, and Recreation	Participating in Sports, Exercise, or Recreation	Fishing	324	1	True	True	False	False	0.3343180271040182
video_on	action	4	meg	1	jaXQxb4v5sI	Wakeboarding	Participating_in_sports&Exercise&Recreation	Sports, Exercise, and Recreation	Participating in Sports, Exercise, or Recreation	Participating in water sports	385	1	True	True	True	True	0.4302897481102263
video_on	action	4	meg	1	IgR_bqCBpIE	Kayaking	Participating_in_sports&Exercise&Recreation	Sports, Exercise, and Recreation	Participating in Sports, Exercise, or Recreation	Participating in water sports	254	1	True	True	True	True	0.4786517362663289
video_on	action	4	meg	1	Op_B2EOkPU0	Cutting the grass	Lawn&Garden&Houseplants	Household Activities	Lawn, Garden, and Houseplants	Lawn, garden, and houseplant care	301	9	True	False	False	True	0.4970185996062355
video_on	action	4	meg	1	d30xFxjG8_0	Sharpening knives	Appliances&Tools&Toys	Household Activities	Appliances, Tools, and Toys	Appliance, tool, and toy set-up, repair, & maintenance (by self)	365	10	True	False	False	True	0.3816092890774598
video_on	action	4	meg	1	5vksCAq-uxc	Mooping floor	Housework	Household Activities	Housework	Interior cleaning	335	6	True	False	False	True	0.3929604356526397
video_on	action	4	meg	1	xh9zsOROCaA	Hula hoop	Relaxing&Leisure	Socializing, Relaxing, and Leisure	Relaxing and Leisure	Playing games	322	3	True	False	True	False	0.4171944075933425
video_on	action	4	meg	1	s8rDhaFHJTE	Ballet	Arts&Entertainment	Socializing, Relaxing, and Leisure	Arts and Entertainment	Attending arts and entertainment	229	2	True	False	True	False	0.5056665172451176
video_on	action	4	meg	1	B0iczNQcKFo	Volleyball	Participating_in_sports&Exercise&Recreation	Sports, Exercise, and Recreation	Participating in Sports, Exercise, or Recreation	Playing volleyball	123	1	True	True	True	True	0.4175620829482795
video_on	action	4	meg	1	cA9UHNFkvhM	Playing pool	Relaxing&Leisure	Socializing, Relaxing, and Leisure	Relaxing and Leisure	Playing games	348	3	True	False	True	False	0.4017484201031038
video_on	action	4	meg	1	BGgb3D6-63s	Playing drums	Arts&Entertainment	Socializing, Relaxing, and Leisure	Arts and Entertainment	Playing musical instruments	346	2	True	False	False	True	0.5298540014919126
video_on	action	4	meg	1	-RTfnptMEOs	Spinning	Participating_in_sports&Exercise&Recreation	Sports, Exercise, and Recreation	Participating in Sports, Exercise, or Recreation	Using cardiovascular equipment	117	1	True	True	True	True	0.3438238539238227
video_on	action	4	meg	1	v25oBO2eYyc	Polishing shoes	Housework	Household Activities	Housework	Sewing, repairing, & maintaining textiles	227	6	True	False	False	True	0.4084224221587647
video_on	action	4	meg	1	jUyqeJ6ztqI	Blow-drying hair	Grooming	Personal Care	Grooming	Washing, dressing and grooming oneself	281	4	True	False	False	True	0.3915298826759681
video_on	action	4	meg	1	EUst1dVIazg	Preparing salad	Food&Drink_prep.&Presentation&Clean-up	Eating and drinking Activities	Food & Drink Prep., Presentation, & Clean-up	Food and drink preparation	96	5	True	False	False	True	0.5522882357472554
video_on	action	4	meg	1	HSyvfPI73Dc	Table soccer	Relaxing&Leisure	Socializing, Relaxing, and Leisure	Relaxing and Leisure	Playing games	379	3	True	False	False	True	0.5866867107106373
video_on	action	4	meg	1	dbwtWgyKP-I	Fixing bicycle	Vehicles	Household Activities	Vehicles	Vehicle repair and maintenance (by self)	171	11	True	False	True	False	0.3765466589975403
video_on	action	4	meg	1	oe2ANpDBs08	Waxing skis	Appliances&Tools&Toys	Household Activities	Appliances, Tools, and Toys	Appliance, tool, and toy set-up, repair, & maintenance (by self)	387	10	True	False	False	True	0.616912462777691
video_on	action	4	meg	1	qOxJgvWocSY	Fixing the roof	Exterior_maintenance&Repair&Decoration	Household Activities	Exterior Maintenance, Repair, & Decoration	Exterior repair, improvements, & decoration	311	12	True	False	False	True	0.3930428456515074
video_on	action	4	meg	1	IRRTibpBYdM	Playing kickball	Participating_in_sports&Exercise&Recreation	Sports, Exercise, and Recreation	Participating in Sports, Exercise, or Recreation	Playing sports	257	1	True	True	True	True	0.3875032639480196
video_on	action	4	meg	1	1h_dXXMRkf4	Triple jump	Participating_in_sports&Exercise&Recreation	Sports, Exercise, and Recreation	Participating in Sports, Exercise, or Recreation	Playing sports	155	1	True	True	True	True	0.4094125495612388
video_on	action	4	meg	1	cWTBX-hZB_0	Washing dishes	Food&Drink_prep.&Presentation&Clean-up	Eating and drinking Activities	Food & Drink Prep., Presentation, & Clean-up	Kitchen and food clean-up	213	5	True	False	False	True	0.5134287538530771
video_on	action	4	meg	1	8k2h3qoDQHY	Long jump	Participating_in_sports&Exercise&Recreation	Sports, Exercise, and Recreation	Participating in Sports, Exercise, or Recreation	Playing sports	80	1	True	True	True	True	0.5777166998013854
video_on	action	4	meg	1	iBPlxqBiPZE	Playing water polo	Participating_in_sports&Exercise&Recreation	Sports, Exercise, and Recreation	Participating in Sports, Exercise, or Recreation	Participating in water sports	130	1	True	True	True	True	0.3319860959600191
video_on	action	4	meg	1	UFSIHJ-qWX8	Cleaning windows	Housework	Household Activities	Housework	Interior cleaning	143	6	True	False	False	True	0.4821609530627029
video_on	action	4	meg	1	lRdfxj6Jy2s	Doing fencing	Participating_in_sports&Exercise&Recreation	Sports, Exercise, and Recreation	Participating in Sports, Exercise, or Recreation	Fencing	309	1	True	True	False	False	0.7860823707451345
video_on	action	4	meg	1	EN-SyJVHrtU	Hand car wash	Vehicles	Household Activities	Vehicles	Vehicle repair and maintenance (by self)	318	11	True	False	False	True	0.4436984277272131
video_on	action	4	meg	1	13ohvPXhA6E	Playing squash	Participating_in_sports&Exercise&Recreation	Sports, Exercise, and Recreation	Participating in Sports, Exercise, or Recreation	Playing racquet sports	194	1	True	True	True	True	0.412026425532531
video_on	action	4	meg	1	E_pAWqF2z7w	Kneeling	Participating_in_sports&Exercise&Recreation	Sports, Exercise, and Recreation	Participating in Sports, Exercise, or Recreation	Working out	328	1	True	True	True	True	0.3459055364219239
video_on	action	4	meg	1	FytaDMYDunQ	Sumo	Participating_in_sports&Exercise&Recreation	Sports, Exercise, and Recreation	Participating in Sports, Exercise, or Recreation	Wrestling	375	1	True	True	True	True	0.378713770158356
video_on	action	4	meg	1	F4SaDIqxLAc	Playing ice hockey	Participating_in_sports&Exercise&Recreation	Sports, Exercise, and Recreation	Participating in Sports, Exercise, or Recreation	Playing hockey	347	1	True	True	True	True	0.4429159855790203
video_on	action	4	meg	1	wZouMjyhXgg	Ping-pong	Participating_in_sports&Exercise&Recreation	Sports, Exercise, and Recreation	Participating in Sports, Exercise, or Recreation	Playing racquet sports	119	1	True	True	True	True	0.4183744100446347
video_on	action	4	meg	1	jiQzJdKvuiY	Shuffleboard	Relaxing&Leisure	Socializing, Relaxing, and Leisure	Relaxing and Leisure	Playing games	368	3	True	False	True	False	0.3781160713115241
video_on	action	4	meg	1	zDB2elMTc0g	Putting in contact lenses	Grooming	Personal Care	Grooming	Washing, dressing and grooming oneself	351	4	True	False	False	True	0.4106653022172395
video_on	action	4	meg	1	6MpuP6QNJ1M	Brushing hair	Grooming	Personal Care	Grooming	Washing, dressing and grooming oneself	125	4	True	False	False	True	0.5222155308147194
video_on	action	4	meg	1	G4VgLjK5TsA	Paintball	Participating_in_sports&Exercise&Recreation	Sports, Exercise, and Recreation	Participating in Sports, Exercise, or Recreation	Playing sports	141	1	True	True	False	False	0.5070448470360134
video_on	action	4	meg	1	E2KBUXxvRT8	Getting a haircut	Grooming	Personal Care	Grooming	Washing, dressing and grooming	208	4	True	False	False	True	0.387936746556079
video_on	action	4	meg	1	UjrLaJBB1lo	Rafting	Participating_in_sports&Exercise&Recreation	Sports, Exercise, and Recreation	Participating in Sports, Exercise, or Recreation	Boating	353	1	True	True	True	True	0.6216856013343204
video_on	action	4	meg	1	p6yv-F_HRIA	Polishing forniture	Housework	Household Activities	Housework	Interior cleaning	156	6	True	False	False	True	0.4921207894949475
video_on	action	4	meg	1	5ADQwfCPxYc	Throwing darts	Relaxing&Leisure	Socializing, Relaxing, and Leisure	Relaxing and Leisure	Playing games	380	3	True	False	False	True	0.5477737981418613
video_on	action	4	meg	1	yVhXeKX-9-k	Bullfighting	Participating_in_sports&Exercise&Recreation	Sports, Exercise, and Recreation	Participating in Sports, Exercise, or Recreation	Participating in rodeo competitions	288	1	True	True	True	True	0.3884761848748894
video_on	action	4	meg	1	rhTRlPCXtCE	Preparing pasta	Food&Drink_prep.&Presentation&Clean-up	Eating and drinking Activities	Food & Drink Prep., Presentation, & Clean-up	Food and drink preparation	186	5	False	False	False	True	0.0
video_on	action	4	eeg	1	vvL4l4U4JaM	Painting	Interior_maintenance&Repair&Decoration	Household Activities	Interior Maintenance, Repair, & Decoration	Interior arrangement, decoration, & repairs	217	7	False	False	False	True	0.0
video_on	action	4	eeg	1	txMc7065xNc	Wrapping presents	Household_management	Household Activities	Household Management	Household & personal organization and planning	179	13	True	False	False	True	0.0050840000039897
video_on	action	4	eeg	1	l0RXyWLKAVo	Spinning	Participating_in_sports&Exercise&Recreation	Sports, Exercise, and Recreation	Participating in Sports, Exercise, or Recreation	Using cardiovascular equipment	117	1	True	True	True	True	0.0050723000022117
video_on	action	4	eeg	1	YngEXdpz-uc	Ballet	Arts&Entertainment	Socializing, Relaxing, and Leisure	Arts and Entertainment	Attending arts and entertainment	229	2	True	False	False	True	0.0050957000057678
video_on	action	4	eeg	1	UqKR6TmQF-U	Playing guitarra	Arts&Entertainment	Socializing, Relaxing, and Leisure	Arts and Entertainment	Playing musical instruments	251	2	True	False	False	True	0.005069499995443
video_on	action	4	eeg	1	FtXguDm2ES0	Plastering	Interior_maintenance&Repair&Decoration	Household Activities	Interior Maintenance, Repair, & Decoration	Interior arrangement, decoration, & repairs	340	7	True	False	False	True	0.0050730000075418
video_on	action	4	eeg	1	vqEybgS0SIY	Brushing teeth	Grooming	Personal Care	Grooming	Washing, dressing and grooming oneself	148	4	True	False	False	True	0.0050772000104188
video_on	action	4	eeg	1	EO6dFhYcbds	Using parallel bars	Participating_in_sports&Exercise&Recreation	Sports, Exercise, and Recreation	Participating in Sports, Exercise, or Recreation	Doing gymnastics	88	1	True	True	True	True	0.005072799991467
video_on	action	4	eeg	1	VAQrHSg917E	Belly dance	Arts&Entertainment	Socializing, Relaxing, and Leisure	Arts and Entertainment	Dancing	247	2	True	False	False	True	0.0050760000012815
video_on	action	4	eeg	1	p8r0_2V2wEQ	Skiing	Participating_in_sports&Exercise&Recreation	Sports, Exercise, and Recreation	Participating in Sports, Exercise, or Recreation	Skiing, ice skating, snowboarding	369	1	True	True	True	True	0.0051251999975647
video_on	action	4	eeg	1	QuHejAdC5fQ	Playing drums	Arts&Entertainment	Socializing, Relaxing, and Leisure	Arts and Entertainment	Playing musical instruments	346	2	True	False	False	True	0.0050787000072887
video_on	action	4	eeg	1	YEJvU2S770c	Mooping floor	Housework	Household Activities	Housework	Interior cleaning	335	6	True	False	False	True	0.0050718999991659
video_on	action	4	eeg	1	CgowxDQHpL0	Cleaning sink	Interior_maintenance&Repair&Decoration	Household Activities	Interior Maintenance, Repair, & Decoration	Interior arrangement, decoration, & repairs	297	7	True	False	False	True	0.0050775999989127
video_on	action	4	eeg	1	hH1WOKoBLC0	Shoveling snow	Exterior_maintenance&Repair&Decoration	Household Activities	Exterior Maintenance, Repair, & Decoration	Exterior cleaning	183	12	True	False	False	True	0.0050747999921441
video_on	action	4	eeg	1	cIe8tc91J6I	Fixing bicycle	Vehicles	Household Activities	Vehicles	Vehicle repair and maintenance (by self)	171	11	True	False	False	True	0.310265399995842
video_on	action	4	eeg	1	yu8Nsttugos	Playing racquetball	Participating_in_sports&Exercise&Recreation	Sports, Exercise, and Recreation	Participating in Sports, Exercise, or Recreation	Playing racquet sports	253	1	True	True	True	True	0.0050778000004356
video_on	action	4	eeg	1	7VXkHykezQA	Hitting a pinata	Relaxing&Leisure	Socializing, Relaxing, and Leisure	Relaxing and Leisure	Playing games	321	3	True	False	False	True	0.0050750999944284
video_on	action	4	eeg	1	7AoMxxJnpbs	Raking leaves	Lawn&Garden&Houseplants	Household Activities	Lawn, Garden, and Houseplants	Lawn, garden, and houseplant care	354	9	True	False	False	True	0.005082300005597
video_on	action	4	eeg	1	FWpzEc_jN9c	Blow-drying hair	Grooming	Personal Care	Grooming	Washing, dressing and grooming oneself	281	4	True	False	False	True	0.0050727000052575
video_on	action	4	eeg	1	bso8zv9b3gw	Tai chi	Participating_in_sports&Exercise&Recreation	Sports, Exercise, and Recreation	Participating in Sports, Exercise, or Recreation	Participating in martial arts	263	1	True	True	True	True	0.0050725000037346
video_on	action	4	eeg	1	1QGSCLdTc24	Springboard diving	Participating_in_sports&Exercise&Recreation	Sports, Exercise, and Recreation	Participating in Sports, Exercise, or Recreation	Participating in water sports	193	1	True	True	True	True	0.0050761000020429
video_on	action	4	eeg	1	Nny-KyfkyhA	Bungee jumping	Participating_in_sports&Exercise&Recreation	Sports, Exercise, and Recreation	Participating in Sports, Exercise, or Recreation	Playing sports	154	1	True	True	True	True	0.0050746000051731
video_on	action	4	eeg	1	8BMQJxl80AI	Wakeboarding	Participating_in_sports&Exercise&Recreation	Sports, Exercise, and Recreation	Participating in Sports, Exercise, or Recreation	Participating in water sports	385	1	True	True	True	True	0.0050737999990815
video_on	action	4	eeg	1	ItYhyEMt0qg	Using the rowing machine	Participating_in_sports&Exercise&Recreation	Sports, Exercise, and Recreation	Participating in Sports, Exercise, or Recreation	Using cardiovascular equipment	384	1	True	True	True	True	0.0050762000028043
video_on	action	4	eeg	1	F4bWTkEMvXY	Capoeira	Participating_in_sports&Exercise&Recreation	Sports, Exercise, and Recreation	Participating in Sports, Exercise, or Recreation	Participating in martial arts	294	1	True	True	True	True	0.0050752999959513
video_on	action	4	eeg	1	TkuEXQg1bH4	Cleaning shoes	Housework	Household Activities	Housework	Sewing, repairing, & maintaining textiles	134	6	True	False	False	True	0.0050746000051731
video_on	action	4	eeg	1	sy3SFyEBYKI	Zumba	Participating_in_sports&Exercise&Recreation	Sports, Exercise, and Recreation	Participating in Sports, Exercise, or Recreation	Doing aerobics	69	1	True	True	True	True	0.0050711999938357
video_on	action	4	eeg	1	JsH62pKSH6M	Starting a campfire	Participating_in_sports&Exercise&Recreation	Sports, Exercise, and Recreation	Participating in Sports, Exercise, or Recreation	Playing sports	153	1	True	True	False	False	0.0050733000098261
video_on	action	4	eeg	1	vRzw3oT3Cuw	Making an omelette	Food&Drink_prep.&Presentation&Clean-up	Eating and drinking Activities	Food & Drink Prep., Presentation, & Clean-up	Food and drink preparation	334	5	True	False	False	True	0.1394280000095022
video_on	action	4	eeg	1	md1yp1VVgh0	Tango	Arts&Entertainment	Socializing, Relaxing, and Leisure	Arts and Entertainment	Dancing	73	2	True	False	False	True	0.0050719999999273
video_on	action	4	eeg	1	hNM4wVqJFuc	Swinging at the playground	Arts&Entertainment	Socializing, Relaxing, and Leisure	Arts and Entertainment	Park activities	378	2	True	False	False	True	0.0050732999952742
video_on	action	4	eeg	1	z2keuXNucdQ	Rock-paper-scissors	Relaxing&Leisure	Socializing, Relaxing, and Leisure	Relaxing and Leisure	Playing games	358	3	True	False	False	True	0.9756387999950676
video_on	action	4	eeg	1	6Na-JzujTWQ	Elliptical trainer	Participating_in_sports&Exercise&Recreation	Sports, Exercise, and Recreation	Participating in Sports, Exercise, or Recreation	Using cardiovascular equipment	308	1	True	True	True	True	0.0050735999975586
video_on	action	4	eeg	1	p23_TiLSBnw	Windsurfing	Participating_in_sports&Exercise&Recreation	Sports, Exercise, and Recreation	Participating in Sports, Exercise, or Recreation	Participating in water sports	237	1	True	True	True	True	0.0050762000028043
video_on	action	4	eeg	1	knZ1P57A-QM	Hammer throw	Participating_in_sports&Exercise&Recreation	Sports, Exercise, and Recreation	Participating in Sports, Exercise, or Recreation	Playing sports	224	1	True	True	True	True	0.0050772999966284
video_on	action	4	eeg	1	-YtFVKXxQHM	Playing badminton	Participating_in_sports&Exercise&Recreation	Sports, Exercise, and Recreation	Participating in Sports, Exercise, or Recreation	Playing racquet sports	268	1	True	True	True	True	0.005080100003397
video_on	action	4	eeg	1	h57ZVfhw2H4	Playing field hockey	Participating_in_sports&Exercise&Recreation	Sports, Exercise, and Recreation	Participating in Sports, Exercise, or Recreation	Playing hockey	94	1	True	True	True	True	0.0050727000052575
video_on	action	4	eeg	1	1PeY7u3pB6Y	Croquet	Participating_in_sports&Exercise&Recreation	Sports, Exercise, and Recreation	Participating in Sports, Exercise, or Recreation	Playing sports	299	1	True	True	True	True	0.0050740999868139
video_on	action	4	eeg	1	2y_wtGtHFEA	Playing ice hockey	Participating_in_sports&Exercise&Recreation	Sports, Exercise, and Recreation	Participating in Sports, Exercise, or Recreation	Playing hockey	347	1	True	True	False	False	0.7630784000066342
video_on	action	4	eeg	1	bnHBkY-PVGA	Washing hands	Grooming	Personal Care	Grooming	Washing, dressing and grooming oneself	173	4	True	False	False	True	0.0050722000014502
video_on	action	4	eeg	1	YZgFf2ahx28	Cleaning windows	Housework	Household Activities	Housework	Interior cleaning	143	6	True	False	False	True	0.0050847999955294
video_on	action	4	eeg	1	sdXwS6DhgTQ	Playing lacrosse	Participating_in_sports&Exercise&Recreation	Sports, Exercise, and Recreation	Participating in Sports, Exercise, or Recreation	Playing racquet sports	209	1	True	True	True	True	0.0050810999964596
video_on	action	4	eeg	1	DYGy2_pNfms	Playing rubik cube	Relaxing&Leisure	Socializing, Relaxing, and Leisure	Relaxing and Leisure	Playing games	349	3	True	False	False	True	0.0050709999923128
video_on	action	4	eeg	1	SU4LyNzjGVw	Bathing dog	Animals&Pets	Household Activities	Animals and Pets	Care for animals and pets (not veterinary care)	90	8	True	False	False	True	0.0050794999988283
video_on	action	4	eeg	1	5ucNa9WQOKA	Archery	Participating_in_sports&Exercise&Recreation	Sports, Exercise, and Recreation	Participating in Sports, Exercise, or Recreation	Playing sports	250	1	True	True	True	True	0.0050673999940045
video_on	action	4	eeg	1	DNWWaGvHOxo	Painting fence	Exterior_maintenance&Repair&Decoration	Household Activities	Exterior Maintenance, Repair, & Decoration	Painting fence	336	12	False	False	False	True	0.0
video_on	action	4	eeg	1	BkM1hcBgDJk	Spread mulch	Lawn&Garden&Houseplants	Household Activities	Lawn, Garden, and Houseplants	Lawn, garden, and houseplant care	374	9	True	False	False	True	0.005071699997643
video_on	action	4	eeg	1	6J8u4rqKzLY	Breakdancing	Arts&Entertainment	Socializing, Relaxing, and Leisure	Arts and Entertainment	Dancing	236	2	True	False	False	True	0.0050695999962044
video_on	action	4	eeg	1	0DLfq_YtcMw	Painting furniture	Interior_maintenance&Repair&Decoration	Household Activities	Interior Maintenance, Repair, & Decoration	Building and repairing furniture	337	7	True	False	False	True	0.0050711000076262
video_on	action	4	eeg	1	qP6DE20-7DM	Camel ride	Participating_in_sports&Exercise&Recreation	Sports, Exercise, and Recreation	Participating in Sports, Exercise, or Recreation	Playing sports	291	1	True	True	False	False	0.0050745999906212
video_on	action	4	eeg	1	dSpTYxDKneo	Doing fencing	Participating_in_sports&Exercise&Recreation	Sports, Exercise, and Recreation	Participating in Sports, Exercise, or Recreation	Fencing	309	1	True	True	True	True	0.0050770999951055
video_on	action	4	eeg	1	4rCpDHEBzis	Cricket	Participating_in_sports&Exercise&Recreation	Sports, Exercise, and Recreation	Participating in Sports, Exercise, or Recreation	Playing sports	82	1	True	True	True	True	0.005076999994344
video_on	action	4	eeg	1	ZEg8YblG93s	Kite flying	Relaxing&Leisure	Socializing, Relaxing, and Leisure	Relaxing and Leisure	Playing games	327	3	True	False	False	True	0.8015696000074968
video_on	action	4	eeg	1	ERJkBjxZQmY	Beer pong	Relaxing&Leisure	Socializing, Relaxing, and Leisure	Relaxing and Leisure	Playing games	280	3	True	False	True	False	0.005072600004496
video_on	action	4	eeg	1	HakrTI3LkaM	Washing dishes	Food&Drink_prep.&Presentation&Clean-up	Eating and drinking Activities	Food & Drink Prep., Presentation, & Clean-up	Kitchen and food clean-up	213	5	True	False	False	True	0.0051099999982398
video_on	action	4	eeg	1	WUkTiiRtM-E	Shuffleboard	Relaxing&Leisure	Socializing, Relaxing, and Leisure	Relaxing and Leisure	Playing games	368	3	True	False	False	True	0.0050799000018741
video_on	action	4	eeg	1	K-LsA23WZUQ	Grooming dog	Animals&Pets	Household Activities	Animals and Pets	Care for animals and pets (not veterinary care)	317	8	True	False	False	True	0.5699757999973372
video_on	action	4	eeg	1	vFQKt55tCvI	Making a cake	Food&Drink_prep.&Presentation&Clean-up	Eating and drinking Activities	Food & Drink Prep., Presentation, & Clean-up	Food and drink preparation	332	5	True	False	False	True	0.0050719999999273
video_on	action	4	eeg	1	QRx9DNAMFR0	Kayaking	Participating_in_sports&Exercise&Recreation	Sports, Exercise, and Recreation	Participating in Sports, Exercise, or Recreation	Participating in water sports	254	1	True	True	True	True	0.0050701999862212
video_on	action	4	eeg	1	FmcpP2EXOQ4	Doing crunches	Participating_in_sports&Exercise&Recreation	Sports, Exercise, and Recreation	Participating in Sports, Exercise, or Recreation	Working out	305	1	True	True	True	True	0.0050727000052575
video_on	action	4	eeg	1	GtO3wMMpfsQ	Dodgeball	Participating_in_sports&Exercise&Recreation	Sports, Exercise, and Recreation	Participating in Sports, Exercise, or Recreation	Playing sports	161	1	True	True	True	True	0.0050707000045804
video_on	action	4	eeg	1	N5MGF9OFaXk	Decorating the Christmas tree	Interior_maintenance&Repair&Decoration	Household Activities	Interior Maintenance, Repair, & Decoration	Interior arrangement, decoration, & repairs	302	7	True	False	False	True	0.0050714000099105
video_on	action	4	eeg	1	mbSzs2eSZ3s	Doing nails	Grooming	Personal Care	Grooming	Washing, dressing and grooming oneself	167	4	True	False	False	True	0.0051088000036543
video_on	action	4	eeg	1	HBa9-NOnJNs	Ironing clothes	Housework	Household Activities	Housework	Laundry	83	6	True	False	False	True	0.0050705000030575
video_on	action	4	eeg	1	IoHWasblBcc	Tug of war	Relaxing&Leisure	Socializing, Relaxing, and Leisure	Relaxing and Leisure	Playing games	382	3	True	False	True	False	0.0050738999998429
video_on	action	4	eeg	1	N6ztUSesC-s	Paintball	Participating_in_sports&Exercise&Recreation	Sports, Exercise, and Recreation	Participating in Sports, Exercise, or Recreation	Playing sports	141	1	True	True	True	True	0.0050970000011147
video_on	action	4	eeg	1	noeIFrhvaY4	Playing piano	Arts&Entertainment	Socializing, Relaxing, and Leisure	Arts and Entertainment	Playing musical instruments	197	2	True	False	False	True	0.0050702000007731
video_on	action	4	eeg	1	uko-6H8fnKo	Rope skipping	Participating_in_sports&Exercise&Recreation	Sports, Exercise, and Recreation	Participating in Sports, Exercise, or Recreation	Working out	361	1	True	True	True	True	0.005071699997643
video_on	action	4	eeg	1	hkHEutOhRM0	BMX	Participating_in_sports&Exercise&Recreation	Sports, Exercise, and Recreation	Participating in Sports, Exercise, or Recreation	Biking	274	1	True	True	True	True	0.005107399992994
video_on	action	4	eeg	1	2IojA-l3ffA	Waterskiing	Participating_in_sports&Exercise&Recreation	Sports, Exercise, and Recreation	Participating in Sports, Exercise, or Recreation	Participating in water sports	386	1	True	True	True	True	0.005069499995443
video_on	action	4	eeg	1	Y57zxms1ZG4	Beach soccer	Participating_in_sports&Exercise&Recreation	Sports, Exercise, and Recreation	Participating in Sports, Exercise, or Recreation	Playing soccer	278	1	True	True	True	True	0.0050744999898597
video_on	action	4	eeg	1	-QfKQQeEOI4	Polishing shoes	Housework	Household Activities	Housework	Sewing, repairing, & maintaining textiles	227	6	True	False	False	True	0.0050705000030575
video_on	action	4	eeg	1	ID8JzI_kiJw	Playing pool	Relaxing&Leisure	Socializing, Relaxing, and Leisure	Relaxing and Leisure	Playing games	348	3	True	False	True	False	0.3864601000095717
video_on	action	4	eeg	1	ugzHCE7VQsc	Tumbling	Participating_in_sports&Exercise&Recreation	Sports, Exercise, and Recreation	Participating in Sports, Exercise, or Recreation	Doing gymnastics	258	1	True	True	True	True	0.0050890000129584
video_on	action	4	eeg	1	zNbtbJ3Spao	Javelin throw	Participating_in_sports&Exercise&Recreation	Sports, Exercise, and Recreation	Participating in Sports, Exercise, or Recreation	Playing sports	116	1	True	True	True	True	0.0051263999921502
video_on	action	4	eeg	1	TDNEEAl5lS4	Long jump	Participating_in_sports&Exercise&Recreation	Sports, Exercise, and Recreation	Participating in Sports, Exercise, or Recreation	Playing sports	80	1	True	True	True	True	0.0050707999907899
video_on	action	4	eeg	1	ps9ulq0z6tc	Laying tile	Interior_maintenance&Repair&Decoration	Household Activities	Interior Maintenance, Repair, & Decoration	Interior arrangement, decoration, & repairs	330	7	True	False	False	True	0.0050733000098261
video_on	action	4	eeg	1	U5btS3w284E	Canoeing	Participating_in_sports&Exercise&Recreation	Sports, Exercise, and Recreation	Participating in Sports, Exercise, or Recreation	Boating	292	1	True	True	True	True	0.0050679999985732
video_on	action	4	eeg	1	AZxRJRR6kb0	Playing harmonica	Arts&Entertainment	Socializing, Relaxing, and Leisure	Arts and Entertainment	Playing musical instruments	100	2	True	False	False	True	0.0050823999918065
video_on	action	4	eeg	1	Uo7Mnspm86U	Hand car wash	Vehicles	Household Activities	Vehicles	Vehicle repair and maintenance (by self)	318	11	True	False	False	True	0.0050713000091491
video_on	action	4	eeg	1	aVECpWezF2o	Plataform diving	Participating_in_sports&Exercise&Recreation	Sports, Exercise, and Recreation	Participating in Sports, Exercise, or Recreation	Participating in water sports	233	1	True	True	True	True	0.0050709999923128
video_on	action	4	eeg	1	rVGgvRfmI9s	Grooming horse	Animals&Pets	Household Activities	Animals and Pets	Walking / exercising / playing with animals	95	8	True	False	False	True	0.0050695000099949
video_on	action	4	eeg	1	HhDbRPJUJzo	Sailing	Participating_in_sports&Exercise&Recreation	Sports, Exercise, and Recreation	Participating in Sports, Exercise, or Recreation	Participating in water sports	240	1	True	True	False	False	0.0050697000115178
video_on	action	4	eeg	1	ZhakHVnSA4w	Playing violin	Arts&Entertainment	Socializing, Relaxing, and Leisure	Arts and Entertainment	Playing musical instruments	234	2	True	False	False	True	0.005071699997643
video_on	action	4	eeg	1	ogwPcjI6E80	Smoking hookah	Relaxing&Leisure	Socializing, Relaxing, and Leisure	Relaxing and Leisure	Tobacco and drug use	189	3	True	False	False	True	0.0050724999891826
video_on	action	4	eeg	1	zJ3SPW-tVrQ	Having an ice cream	Food&Drink_prep.&Presentation&Clean-up	Eating and drinking Activities	Food & Drink Prep., Presentation, & Clean-up	Eating and Drinking	320	5	True	False	False	True	0.005071500010672
video_on	action	4	eeg	1	xEu0iBOaBFY	Polishing forniture	Housework	Household Activities	Housework	Interior cleaning	156	6	True	False	False	True	0.005072600004496
video_on	action	4	eeg	1	1zFEmL5lKYE	Doing step aerobics	Participating_in_sports&Exercise&Recreation	Sports, Exercise, and Recreation	Participating in Sports, Exercise, or Recreation	Doing aerobics	230	1	True	True	False	False	0.0050711000076262
video_on	action	4	eeg	1	_RVJDGqDk5A	Walking the dog	Animals&Pets	Household Activities	Animals and Pets	Walking / exercising / playing with animals	221	8	True	False	False	True	0.0050754999974742
video_on	action	4	eeg	1	oqOaqubckqo	Brushing hair	Grooming	Personal Care	Grooming	Washing, dressing and grooming oneself	125	4	True	False	False	True	0.0050728000060189
video_on	action	4	meg	2	XmPOLlqA-tk	Welding	Appliances&Tools&Toys	Household Activities	Appliances, Tools, and Toys	Appliance, tool, and toy set-up, repair, & maintenance (by self)	388	10	True	False	False	True	0.547154364787275
video_on	action	4	meg	2	V5Qu02rpVz4	Surfing	Participating_in_sports&Exercise&Recreation	Sports, Exercise, and Recreation	Participating in Sports, Exercise, or Recreation	Participating in water sports	376	1	True	True	True	True	0.5019511245336616
video_on	action	4	meg	2	-okFRgLetB0	Rock-paper-scissors	Relaxing&Leisure	Socializing, Relaxing, and Leisure	Relaxing and Leisure	Playing games	358	3	True	False	False	True	0.3961052976374049
video_on	action	4	meg	2	4UIy6TnqVLo	Brushing teeth	Grooming	Personal Care	Grooming	Washing, dressing and grooming oneself	148	4	True	False	False	True	0.4842972736805677
video_on	action	4	meg	2	0ZQoJ2psHIs	Wrapping presents	Household_management	Household Activities	Household Management	Household & personal organization and planning	179	13	True	False	False	True	0.5961735198216047
video_on	action	4	meg	2	iIIEhH7xOXg	Playing guitarra	Arts&Entertainment	Socializing, Relaxing, and Leisure	Arts and Entertainment	Playing musical instruments	251	2	True	False	False	True	0.5268917697103461
video_on	action	4	meg	2	MHU6QLVhfwM	Snatch	Participating_in_sports&Exercise&Recreation	Sports, Exercise, and Recreation	Participating in Sports, Exercise, or Recreation	Weightlifting	79	1	True	True	False	False	0.8927160734165227
video_on	action	4	meg	2	qNt6pInA4fs	Drum corps	Arts&Entertainment	Socializing, Relaxing, and Leisure	Arts and Entertainment	Playing musical instruments	307	2	True	False	False	True	0.6071089940087404
video_on	action	4	meg	2	dn4G7a-Gv_o	Bathing dog	Animals&Pets	Household Activities	Animals and Pets	Care for animals and pets (not veterinary care)	90	8	True	False	False	True	0.6368955279758666
video_on	action	4	meg	2	3Ld2xN8R26Y	Painting	Interior_maintenance&Repair&Decoration	Household Activities	Interior Maintenance, Repair, & Decoration	Interior arrangement, decoration, & repairs	217	7	True	False	False	True	0.5891553881083382
video_on	action	4	meg	2	pS7Dw5Zm8TM	Painting fence	Exterior_maintenance&Repair&Decoration	Household Activities	Exterior Maintenance, Repair, & Decoration	Painting fence	336	12	True	False	False	True	0.4599609684519237
video_on	action	4	meg	2	Rdi29ummdOc	Springboard diving	Participating_in_sports&Exercise&Recreation	Sports, Exercise, and Recreation	Participating in Sports, Exercise, or Recreation	Participating in water sports	193	1	True	True	True	True	0.4373884786036797
video_on	action	4	meg	2	OMlTV-IURIE	Knitting	Housework	Household Activities	Housework	Sewing, repairing, & maintaining textiles	329	6	True	False	False	True	0.5655242468055803
video_on	action	4	meg	2	Uk2-SnWxI8U	Playing blackjack	Arts&Entertainment	Socializing, Relaxing, and Leisure	Arts and Entertainment	Attending gambling establishments	343	2	True	False	False	True	0.5557385882420931
video_on	action	4	meg	2	FtLErnUbGVA	Plataform diving	Participating_in_sports&Exercise&Recreation	Sports, Exercise, and Recreation	Participating in Sports, Exercise, or Recreation	Participating in water sports	233	1	True	True	True	True	0.4318941771198297
video_on	action	4	meg	2	A08oIP7iXGo	Playing saxophone	Arts&Entertainment	Socializing, Relaxing, and Leisure	Arts and Entertainment	Playing musical instruments	109	2	True	False	False	True	0.6302139792096568
video_on	action	4	meg	2	RUtCi02OFVw	Grooming dog	Animals&Pets	Household Activities	Animals and Pets	Care for animals and pets (not veterinary care)	317	8	True	False	False	True	0.6609489827824291
video_on	action	4	meg	2	I5XPn8DwsrY	Playing violin	Arts&Entertainment	Socializing, Relaxing, and Leisure	Arts and Entertainment	Playing musical instruments	234	2	True	False	False	True	0.6064865419612033
video_on	action	4	meg	2	6l5tDosci5A	Tumbling	Participating_in_sports&Exercise&Recreation	Sports, Exercise, and Recreation	Participating in Sports, Exercise, or Recreation	Doing gymnastics	258	1	True	True	True	True	0.3812491604330716
video_on	action	4	meg	2	MAlSi7rStyI	Slacklining	Relaxing&Leisure	Socializing, Relaxing, and Leisure	Relaxing and Leisure	Playing games	371	3	True	False	True	False	0.3920098529779352
video_on	action	4	meg	2	vs8us2xhfCA	Doing karate	Participating_in_sports&Exercise&Recreation	Sports, Exercise, and Recreation	Participating in Sports, Exercise, or Recreation	Participating in martial arts	99	1	True	True	True	True	0.4389455143245868
video_on	action	4	meg	2	sbcVIobQ6Y4	Running a marathon	Participating_in_sports&Exercise&Recreation	Sports, Exercise, and Recreation	Participating in Sports, Exercise, or Recreation	Running	362	1	True	True	True	True	0.4071877815877087
video_on	action	4	meg	2	F0aS2w9VKNs	Waterskiing	Participating_in_sports&Exercise&Recreation	Sports, Exercise, and Recreation	Participating in Sports, Exercise, or Recreation	Participating in water sports	386	1	True	True	True	True	0.4007000321435043
video_on	action	4	meg	2	sMdxEhg4-J0	Decorating the Christmas tree	Interior_maintenance&Repair&Decoration	Household Activities	Interior Maintenance, Repair, & Decoration	Interior arrangement, decoration, & repairs	302	7	True	False	False	True	0.4874551159737166
video_on	action	4	meg	2	RfPwVU0AW54	Making an omelette	Food&Drink_prep.&Presentation&Clean-up	Eating and drinking Activities	Food & Drink Prep., Presentation, & Clean-up	Food and drink preparation	334	5	True	False	False	True	0.3508942088083131
video_on	action	4	meg	2	oTGHgCNp02Y	Playing lacrosse	Participating_in_sports&Exercise&Recreation	Sports, Exercise, and Recreation	Participating in Sports, Exercise, or Recreation	Playing racquet sports	209	1	True	True	True	True	0.43314481669222
video_on	action	4	meg	2	tbEHpakKLRo	Doing kickboxing	Participating_in_sports&Exercise&Recreation	Sports, Exercise, and Recreation	Participating in Sports, Exercise, or Recreation	Participating in martial arts	70	1	True	True	True	True	0.49014234590868
video_on	action	4	meg	2	E9GQ7kQvCSg	Hurling	Participating_in_sports&Exercise&Recreation	Sports, Exercise, and Recreation	Participating in Sports, Exercise, or Recreation	Playing sports	323	1	True	True	True	True	0.4501073895808076
video_on	action	4	meg	2	xsyxswlq-vs	Smoking a cigarette	Relaxing&Leisure	Socializing, Relaxing, and Leisure	Relaxing and Leisure	Tobacco and drug use	201	3	True	False	False	True	0.3121095901879016
video_on	action	4	meg	2	j5cmc3cnLeU	Tango	Arts&Entertainment	Socializing, Relaxing, and Leisure	Arts and Entertainment	Dancing	73	2	True	False	True	False	0.3521865061920834
video_on	action	4	meg	2	xePJHn8VxnQ	Bungee jumping	Participating_in_sports&Exercise&Recreation	Sports, Exercise, and Recreation	Participating in Sports, Exercise, or Recreation	Playing sports	154	1	True	True	True	True	0.5545597932796227
video_on	action	4	meg	2	ItdiW9lPrXs	Clean and jerk	Participating_in_sports&Exercise&Recreation	Sports, Exercise, and Recreation	Participating in Sports, Exercise, or Recreation	Weightlifting	84	1	True	True	True	True	0.5604821437445935
video_on	action	4	meg	2	YCHmXwLhs3A	Assembling bicycle	Vehicles	Household Activities	Vehicles	Vehicle repair and maintenance (by self)	273	11	True	False	False	True	0.4981158901937306
video_on	action	4	meg	2	adQvfYMW2d0	Rope skipping	Participating_in_sports&Exercise&Recreation	Sports, Exercise, and Recreation	Participating in Sports, Exercise, or Recreation	Working out	361	1	True	True	True	True	0.3857424672605702
video_on	action	4	meg	2	xxa5E0rm0SI	Futsal	Participating_in_sports&Exercise&Recreation	Sports, Exercise, and Recreation	Participating in Sports, Exercise, or Recreation	Playing soccer	315	1	True	True	True	True	0.4105068214703351
video_on	action	4	meg	2	7_DkmUDGS6Q	Playing harmonica	Arts&Entertainment	Socializing, Relaxing, and Leisure	Arts and Entertainment	Playing musical instruments	100	2	True	False	False	True	0.505207073976635
video_on	action	4	meg	2	bVvHaMUtu_Y	Doing motocross	Participating_in_sports&Exercise&Recreation	Sports, Exercise, and Recreation	Participating in Sports, Exercise, or Recreation	Playing sports	243	1	True	True	True	True	0.3775002603651956
video_on	action	4	meg	2	2mEIokp5iTw	Cleaning sink	Interior_maintenance&Repair&Decoration	Household Activities	Interior Maintenance, Repair, & Decoration	Interior arrangement, decoration, & repairs	297	7	True	False	False	True	0.569415326739545
video_on	action	4	meg	2	T5Lckcr2Qqg	Drinking coffee	Food&Drink_prep.&Presentation&Clean-up	Eating and drinking Activities	Food & Drink Prep., Presentation, & Clean-up	Eating and Drinking	68	5	True	False	False	True	0.6976473908725893
video_on	action	4	meg	2	kkXekzzbiQE	Making a lemonade	Food&Drink_prep.&Presentation&Clean-up	Eating and drinking Activities	Food & Drink Prep., Presentation, & Clean-up	Food and drink preparation	333	5	True	False	False	True	0.5206907949759625
video_on	action	4	meg	2	RLhi6PsGzLs	Baking cookies	Food&Drink_prep.&Presentation&Clean-up	Eating and drinking Activities	Food & Drink Prep., Presentation, & Clean-up	Food and drink preparation	276	5	True	False	False	True	0.5401205359376036
video_on	action	4	meg	2	ZYFUyZBFNcI	Disc dog	Animals&Pets	Household Activities	Animals and Pets	Walking / exercising / playing with animals	303	8	True	False	True	False	0.4496467388380551
video_on	action	4	meg	2	xEDAh_Jnzf0	Doing crunches	Participating_in_sports&Exercise&Recreation	Sports, Exercise, and Recreation	Participating in Sports, Exercise, or Recreation	Working out	305	1	True	True	True	True	0.4591824505914701
video_on	action	4	meg	2	rGqoEI_Y2yM	Ironing clothes	Housework	Household Activities	Housework	Laundry	83	6	True	False	False	True	0.5936486949503887
video_on	action	4	meg	2	GY9ExoIv0e8	Swinging at the playground	Arts&Entertainment	Socializing, Relaxing, and Leisure	Arts and Entertainment	Park activities	378	2	True	False	False	True	0.6424734469328541
video_on	action	4	meg	2	wGlYm9h9I_Y	Zumba	Participating_in_sports&Exercise&Recreation	Sports, Exercise, and Recreation	Participating in Sports, Exercise, or Recreation	Doing aerobics	69	1	True	True	True	True	0.4284411077969707
video_on	action	4	meg	2	YOW-7QTcJAc	Getting a tattoo	Grooming	Personal Care	Grooming	Washing, dressing and grooming	187	4	True	False	False	True	0.5545045514154481
video_on	action	4	meg	2	c0fJNUMg2kY	Windsurfing	Participating_in_sports&Exercise&Recreation	Sports, Exercise, and Recreation	Participating in Sports, Exercise, or Recreation	Participating in water sports	237	1	True	True	True	True	0.371057187396218
video_on	action	4	meg	2	9d0J08TK4BU	Using the rowing machine	Participating_in_sports&Exercise&Recreation	Sports, Exercise, and Recreation	Participating in Sports, Exercise, or Recreation	Using cardiovascular equipment	384	1	True	True	True	True	0.4680631085502682
video_on	action	4	meg	2	3Z_EqJGsUi0	Playing polo	Participating_in_sports&Exercise&Recreation	Sports, Exercise, and Recreation	Participating in Sports, Exercise, or Recreation	Participating in equestrian sports	75	1	True	True	True	True	0.4994398837152403
video_on	action	4	meg	2	Ro4tN2ECDgo	Shaving	Grooming	Personal Care	Grooming	Washing, dressing and grooming oneself	190	4	True	False	False	True	0.6909471262915758
video_on	action	4	meg	2	QF1Y0lxvM-A	Camel ride	Participating_in_sports&Exercise&Recreation	Sports, Exercise, and Recreation	Participating in Sports, Exercise, or Recreation	Playing sports	291	1	True	True	False	False	0.6591818468587007
video_on	action	4	meg	2	h7bXuVr2LyA	Playing badminton	Participating_in_sports&Exercise&Recreation	Sports, Exercise, and Recreation	Participating in Sports, Exercise, or Recreation	Playing racquet sports	268	1	True	True	True	True	0.5319821716693696
video_on	action	4	meg	2	yvM0Y_H3Svk	Playing beach volleyball	Participating_in_sports&Exercise&Recreation	Sports, Exercise, and Recreation	Participating in Sports, Exercise, or Recreation	Playing volleyball	341	1	True	True	True	True	0.4535100469220197
video_on	action	4	meg	2	hjgIp3spenc	Rock climbing	Participating_in_sports&Exercise&Recreation	Sports, Exercise, and Recreation	Participating in Sports, Exercise, or Recreation	Climbing, spelunking, caving	188	1	True	True	True	True	0.4843036129168467
video_on	action	4	meg	2	yeI0ufL1C-w	Building sandcastles	Arts&Entertainment	Socializing, Relaxing, and Leisure	Arts and Entertainment	Beach activities	286	2	True	False	False	True	0.5719000031676842
video_on	action	4	meg	2	fTUA-yCujkc	Making a cake	Food&Drink_prep.&Presentation&Clean-up	Eating and drinking Activities	Food & Drink Prep., Presentation, & Clean-up	Food and drink preparation	332	5	True	False	False	True	0.5487648311536759
video_on	action	4	meg	2	cTOhzcSYMlM	Putting on shoes	Grooming	Personal Care	Grooming	Washing, dressing and grooming oneself	352	4	True	False	False	True	0.411940091260476
video_on	action	4	meg	2	xaiJEou113M	Capoeira	Participating_in_sports&Exercise&Recreation	Sports, Exercise, and Recreation	Participating in Sports, Exercise, or Recreation	Participating in martial arts	294	1	True	True	False	False	0.5389206101972377
video_on	action	4	meg	2	8l72aruR1ZI	High jump	Participating_in_sports&Exercise&Recreation	Sports, Exercise, and Recreation	Participating in Sports, Exercise, or Recreation	Playing sports	195	1	True	True	True	True	0.4865464929607697
video_on	action	4	meg	2	PA1ceDCcloI	Hanging wallpaper	Interior_maintenance&Repair&Decoration	Household Activities	Interior Maintenance, Repair, & Decoration	Interior arrangement, decoration, & repairs	319	7	True	False	False	True	0.7493577001296217
video_on	action	4	meg	2	UmH5Uoreuh8	Archery	Participating_in_sports&Exercise&Recreation	Sports, Exercise, and Recreation	Participating in Sports, Exercise, or Recreation	Playing sports	250	1	True	True	True	True	0.4790016014012508
video_on	action	4	meg	2	Ds1i-wDDj1Y	Painting furniture	Interior_maintenance&Repair&Decoration	Household Activities	Interior Maintenance, Repair, & Decoration	Building and repairing furniture	337	7	True	False	False	True	0.375012867123587
video_on	action	4	meg	2	GgZe0JJK6-U	Getting a piercing	Grooming	Personal Care	Grooming	Washing, dressing and grooming	214	4	True	False	False	True	0.5097058144310722
video_on	action	4	meg	2	EQxrNdhMW6k	Beach soccer	Participating_in_sports&Exercise&Recreation	Sports, Exercise, and Recreation	Participating in Sports, Exercise, or Recreation	Playing soccer	278	1	True	True	True	True	0.4291743454377865
video_on	action	4	meg	2	OJnPO4xK7TY	Cheerleading	Arts&Entertainment	Socializing, Relaxing, and Leisure	Arts and Entertainment	Dancing	140	2	True	False	True	False	0.5272947636403842
video_on	action	4	meg	2	KmmZULPUEkQ	Mixing drinks	Food&Drink_prep.&Presentation&Clean-up	Eating and drinking Activities	Food & Drink Prep., Presentation, & Clean-up	Food and drink preparation	244	5	True	False	False	True	0.5335935436451109
video_on	action	4	meg	2	66szHJG2fPI	Braiding hair	Grooming	Personal Care	Grooming	Washing, dressing and grooming oneself	285	4	True	False	False	True	0.5974926834751386
video_on	action	4	meg	2	M562MzDNQik	Elliptical trainer	Participating_in_sports&Exercise&Recreation	Sports, Exercise, and Recreation	Participating in Sports, Exercise, or Recreation	Using cardiovascular equipment	308	1	True	True	True	True	0.5016226920270128
video_on	action	4	meg	2	bJsshtTstZg	Playing racquetball	Participating_in_sports&Exercise&Recreation	Sports, Exercise, and Recreation	Participating in Sports, Exercise, or Recreation	Playing racquet sports	253	1	True	True	True	True	0.5819890391721856
video_on	action	4	meg	2	_K8nmtsC5hk	Playing accordion	Arts&Entertainment	Socializing, Relaxing, and Leisure	Arts and Entertainment	Playing musical instruments	267	2	True	False	False	True	0.6301551149372244
video_on	action	4	meg	2	pvEsK5Gxoeg	Riding bumper cars	Relaxing&Leisure	Socializing, Relaxing, and Leisure	Relaxing and Leisure	Playing games	356	3	True	False	False	True	0.5503592985187424
video_on	action	4	meg	2	k6eA2IlMBpU	Hand washing clothes	Housework	Household Activities	Housework	Laundry	232	6	True	False	False	True	0.4465263281745137
video_on	action	4	meg	2	G-NLfwx6dIY	Horseback riding	Participating_in_sports&Exercise&Recreation	Sports, Exercise, and Recreation	Participating in Sports, Exercise, or Recreation	Participating in equestrian sports	175	1	True	True	False	False	0.5505642669595545
video_on	action	4	meg	2	5Dmmaemw4jo	Spread mulch	Lawn&Garden&Houseplants	Household Activities	Lawn, Garden, and Houseplants	Lawn, garden, and houseplant care	374	9	True	False	False	True	0.5260012587968959
video_on	action	4	meg	2	UzFcm6E0tuo	Hammer throw	Participating_in_sports&Exercise&Recreation	Sports, Exercise, and Recreation	Participating in Sports, Exercise, or Recreation	Playing sports	224	1	True	True	True	True	0.4249729450675659
video_on	action	4	meg	2	0nz4qPcU4us	Rollerblading	Participating_in_sports&Exercise&Recreation	Sports, Exercise, and Recreation	Participating in Sports, Exercise, or Recreation	Playing sports	359	1	True	True	True	True	0.4862968480447307
video_on	action	4	meg	2	XqcaS-zHWTg	Plastering	Interior_maintenance&Repair&Decoration	Household Activities	Interior Maintenance, Repair, & Decoration	Interior arrangement, decoration, & repairs	340	7	True	False	False	True	0.4459557974623749
video_on	action	4	meg	2	x0_GaicwdAQ	Using the monkey bar	Arts&Entertainment	Socializing, Relaxing, and Leisure	Arts and Entertainment	Park activities	383	2	True	False	True	False	0.4306356889719609
video_on	action	4	meg	2	xS4Qaj4HcUQ	Skateboarding	Participating_in_sports&Exercise&Recreation	Sports, Exercise, and Recreation	Participating in Sports, Exercise, or Recreation	Playing sports	176	1	True	True	True	True	0.4303084639250301
video_on	action	4	meg	2	yw2Sq3-uxUE	Playing piano	Arts&Entertainment	Socializing, Relaxing, and Leisure	Arts and Entertainment	Playing musical instruments	197	2	True	False	False	True	0.463749111368088
video_on	action	4	meg	2	lr7KoQK3Kq8	Baton twirling	Participating_in_sports&Exercise&Recreation	Sports, Exercise, and Recreation	Participating in Sports, Exercise, or Recreation	Playing sports	277	1	True	True	True	True	0.3690428215049905
video_on	action	4	meg	2	9mSs4IaJTl4	Skiing	Participating_in_sports&Exercise&Recreation	Sports, Exercise, and Recreation	Participating in Sports, Exercise, or Recreation	Skiing, ice skating, snowboarding	369	1	True	True	True	True	0.4733829302713275
video_on	action	4	meg	2	Bz6JF3qx7hU	Longboarding	Participating_in_sports&Exercise&Recreation	Sports, Exercise, and Recreation	Participating in Sports, Exercise, or Recreation	Playing sports	331	1	True	True	True	True	0.5276171587902354
video_on	action	4	meg	2	MxLvh0rzXwk	Powerbocking	Participating_in_sports&Exercise&Recreation	Sports, Exercise, and Recreation	Participating in Sports, Exercise, or Recreation	Playing sports	350	1	True	True	True	True	0.5997120178217301
video_on	action	4	meg	2	C5NHt3veRR8	Doing nails	Grooming	Personal Care	Grooming	Washing, dressing and grooming oneself	167	4	True	False	False	True	0.5513690473599127
video_on	action	4	meg	2	vGO2jI968UY	Playing rubik cube	Relaxing&Leisure	Socializing, Relaxing, and Leisure	Relaxing and Leisure	Playing games	349	3	True	False	False	True	0.6101168078603223
video_on	action	4	meg	2	e-sR7cQlV-A	Using parallel bars	Participating_in_sports&Exercise&Recreation	Sports, Exercise, and Recreation	Participating in Sports, Exercise, or Recreation	Doing gymnastics	88	1	True	True	True	True	0.4489095769240521
video_on	action	4	meg	2	Y8dMELUE8Ao	Snowboarding	Participating_in_sports&Exercise&Recreation	Sports, Exercise, and Recreation	Participating in Sports, Exercise, or Recreation	Skiing, ice skating, snowboarding	373	1	True	True	True	True	0.41105531580979
video_on	action	4	meg	2	Gg1JwkSq_WI	Tai chi	Participating_in_sports&Exercise&Recreation	Sports, Exercise, and Recreation	Participating in Sports, Exercise, or Recreation	Participating in martial arts	263	1	False	True	False	False	0.0
video_on	action	4	eeg	2	861NrDW6TpM	Throwing darts	Relaxing&Leisure	Socializing, Relaxing, and Leisure	Relaxing and Leisure	Playing games	380	3	True	False	False	True	0.7969642000098247
video_on	action	4	eeg	2	Kyip02XsQCk	Baking cookies	Food&Drink_prep.&Presentation&Clean-up	Eating and drinking Activities	Food & Drink Prep., Presentation, & Clean-up	Food and drink preparation	276	5	True	False	False	True	0.8353800000040792
video_on	action	4	eeg	2	Z2Iqdd0EwjQ	Clean and jerk	Participating_in_sports&Exercise&Recreation	Sports, Exercise, and Recreation	Participating in Sports, Exercise, or Recreation	Weightlifting	84	1	True	True	True	True	0.697962499994901
video_on	action	4	eeg	2	4R5lIYczm_E	Mowing the lawn	Lawn&Garden&Houseplants	Household Activities	Lawn, Garden, and Houseplants	Lawn, garden, and houseplant care	218	9	True	False	False	True	0.768224299987196
video_on	action	4	eeg	2	NiZAM8VlKBw	Ping-pong	Participating_in_sports&Exercise&Recreation	Sports, Exercise, and Recreation	Participating in Sports, Exercise, or Recreation	Playing racquet sports	119	1	True	True	True	True	0.7626509999972768
video_on	action	4	eeg	2	HAiwZsBQBqY	Chopping wood	Interior_maintenance&Repair&Decoration	Household Activities	Interior Maintenance, Repair, & Decoration	Heating and cooling	110	7	True	False	False	True	0.6987694000126794
video_on	action	4	eeg	2	-n5yIMzc7HI	Drinking coffee	Food&Drink_prep.&Presentation&Clean-up	Eating and drinking Activities	Food & Drink Prep., Presentation, & Clean-up	Eating and Drinking	68	5	True	False	False	True	0.7954816999990726
video_on	action	4	eeg	2	jpIS9xDv9WY	Rafting	Participating_in_sports&Exercise&Recreation	Sports, Exercise, and Recreation	Participating in Sports, Exercise, or Recreation	Boating	353	1	True	True	True	True	0.666945000004489
video_on	action	4	eeg	2	OTaLrSY852U	Preparing pasta	Food&Drink_prep.&Presentation&Clean-up	Eating and drinking Activities	Food & Drink Prep., Presentation, & Clean-up	Food and drink preparation	186	5	True	False	False	True	0.6153718999994453
video_on	action	4	eeg	2	ezS5cdByTRk	Getting a haircut	Grooming	Personal Care	Grooming	Washing, dressing and grooming	208	4	True	False	False	True	0.6149050999956671
video_on	action	4	eeg	2	YRPKa-v7GZE	Doing karate	Participating_in_sports&Exercise&Recreation	Sports, Exercise, and Recreation	Participating in Sports, Exercise, or Recreation	Participating in martial arts	99	1	True	True	True	True	0.619782399997348
video_on	action	4	eeg	2	9tjFyIqpHW0	Bullfighting	Participating_in_sports&Exercise&Recreation	Sports, Exercise, and Recreation	Participating in Sports, Exercise, or Recreation	Participating in rodeo competitions	288	1	True	True	True	True	0.6489033999969251
video_on	action	4	eeg	2	-DCnkA_ALJs	Rock climbing	Participating_in_sports&Exercise&Recreation	Sports, Exercise, and Recreation	Participating in Sports, Exercise, or Recreation	Climbing, spelunking, caving	188	1	True	True	True	True	0.6758112000097753
video_on	action	4	eeg	2	FziFdaRokPk	Getting a piercing	Grooming	Personal Care	Grooming	Washing, dressing and grooming	214	4	True	False	False	True	0.5599975999939488
video_on	action	4	eeg	2	_mCmRW4buZA	Shot put	Participating_in_sports&Exercise&Recreation	Sports, Exercise, and Recreation	Participating in Sports, Exercise, or Recreation	Playing sports	169	1	True	True	True	True	0.8273521999944933
video_on	action	4	eeg	2	TF91Yy0ijDI	Volleyball	Participating_in_sports&Exercise&Recreation	Sports, Exercise, and Recreation	Participating in Sports, Exercise, or Recreation	Playing volleyball	123	1	True	True	True	True	0.9416171000048053
video_on	action	4	eeg	2	9V6uXXGmfcQ	Knitting	Housework	Household Activities	Housework	Sewing, repairing, & maintaining textiles	329	6	True	False	False	True	0.7816978999908315
video_on	action	4	eeg	2	EPjDg3s1sp8	Hand washing clothes	Housework	Household Activities	Housework	Laundry	232	6	True	False	False	True	0.7328643000073498
video_on	action	4	eeg	2	9VLgLLQBPxM	Cheerleading	Arts&Entertainment	Socializing, Relaxing, and Leisure	Arts and Entertainment	Dancing	140	2	True	False	True	False	0.7132400999980746
video_on	action	4	eeg	2	3h29-QO0xqA	Playing squash	Participating_in_sports&Exercise&Recreation	Sports, Exercise, and Recreation	Participating in Sports, Exercise, or Recreation	Playing racquet sports	194	1	True	True	True	True	0.6976079000014579
video_on	action	4	eeg	2	oyglkJOmH0o	Triple jump	Participating_in_sports&Exercise&Recreation	Sports, Exercise, and Recreation	Participating in Sports, Exercise, or Recreation	Playing sports	155	1	True	True	True	True	0.6887367000017548
video_on	action	4	eeg	2	wBgU5jXb_V4	Playing polo	Participating_in_sports&Exercise&Recreation	Sports, Exercise, and Recreation	Participating in Sports, Exercise, or Recreation	Participating in equestrian sports	75	1	True	True	True	True	0.97290689998772
video_on	action	4	eeg	2	2Ft7Q5NNXhY	Using the monkey bar	Arts&Entertainment	Socializing, Relaxing, and Leisure	Arts and Entertainment	Park activities	383	2	True	False	True	False	0.7300886000011815
video_on	action	4	eeg	2	TYSfGwh4PZ8	Mixing drinks	Food&Drink_prep.&Presentation&Clean-up	Eating and drinking Activities	Food & Drink Prep., Presentation, & Clean-up	Food and drink preparation	244	5	True	False	False	True	0.6421640999906231
video_on	action	4	eeg	2	fOOwe8s5zyA	Hopscotch	Relaxing&Leisure	Socializing, Relaxing, and Leisure	Relaxing and Leisure	Playing games	241	3	True	False	False	True	1.008550300000934
video_on	action	4	eeg	2	nSHcTca1IPs	Fixing the roof	Exterior_maintenance&Repair&Decoration	Household Activities	Exterior Maintenance, Repair, & Decoration	Exterior repair, improvements, & decoration	311	12	True	False	False	True	0.6316058999946108
video_on	action	4	eeg	2	5YHDtBlj0lY	Playing kickball	Participating_in_sports&Exercise&Recreation	Sports, Exercise, and Recreation	Participating in Sports, Exercise, or Recreation	Playing sports	257	1	True	True	False	False	0.840091800011578
video_on	action	4	eeg	2	7dra_32TaS0	Playing blackjack	Arts&Entertainment	Socializing, Relaxing, and Leisure	Arts and Entertainment	Attending gambling establishments	343	2	True	False	False	True	0.6775638999970397
video_on	action	4	eeg	2	Cho4qHQx7UI	Powerbocking	Participating_in_sports&Exercise&Recreation	Sports, Exercise, and Recreation	Participating in Sports, Exercise, or Recreation	Playing sports	350	1	True	True	True	True	0.6703635000012582
video_on	action	4	eeg	2	QUbe0g6klVc	Assembling bicycle	Vehicles	Household Activities	Vehicles	Vehicle repair and maintenance (by self)	273	11	True	False	False	True	0.8927107000054093
video_on	action	4	eeg	2	tILcmwJCNGw	Futsal	Participating_in_sports&Exercise&Recreation	Sports, Exercise, and Recreation	Participating in Sports, Exercise, or Recreation	Playing soccer	315	1	True	True	True	True	0.62806869999622
video_on	action	4	eeg	2	CBnjzj3AKJ8	Horseback riding	Participating_in_sports&Exercise&Recreation	Sports, Exercise, and Recreation	Participating in Sports, Exercise, or Recreation	Participating in equestrian sports	175	1	True	True	True	True	0.6271928999922238
video_on	action	4	eeg	2	pMsPyAyPMMs	Waxing skis	Appliances&Tools&Toys	Household Activities	Appliances, Tools, and Toys	Appliance, tool, and toy set-up, repair, & maintenance (by self)	387	10	True	False	False	True	0.9722142000100576
video_on	action	4	eeg	2	wWGbAL2jvcs	Vacuuming floor	Housework	Household Activities	Housework	Interior cleaning	160	6	True	False	False	True	0.6497792000009213
video_on	action	4	eeg	2	suPqich636U	Sharpening knives	Appliances&Tools&Toys	Household Activities	Appliances, Tools, and Toys	Appliance, tool, and toy set-up, repair, & maintenance (by self)	365	10	True	False	False	True	3.258920299995225
video_on	action	4	eeg	2	nz0XQWePVIY	Baton twirling	Participating_in_sports&Exercise&Recreation	Sports, Exercise, and Recreation	Participating in Sports, Exercise, or Recreation	Playing sports	277	1	True	True	False	False	0.9749360999994678
video_on	action	4	eeg	2	zY-xL6Hru48	Arm wrestling	Participating_in_sports&Exercise&Recreation	Sports, Exercise, and Recreation	Participating in Sports, Exercise, or Recreation	Wrestling	271	1	True	True	True	True	0.8729640999954427
video_on	action	4	eeg	2	kyhPJqW01p8	Braiding hair	Grooming	Personal Care	Grooming	Washing, dressing and grooming oneself	285	4	True	False	False	True	0.6699284000060288
video_on	action	4	eeg	2	h2cQIGYmwMY	Snowboarding	Participating_in_sports&Exercise&Recreation	Sports, Exercise, and Recreation	Participating in Sports, Exercise, or Recreation	Skiing, ice skating, snowboarding	373	1	True	True	True	True	0.895920599999954
video_on	action	4	eeg	2	__XefpA3z5s	High jump	Participating_in_sports&Exercise&Recreation	Sports, Exercise, and Recreation	Participating in Sports, Exercise, or Recreation	Playing sports	195	1	True	True	True	True	0.0050762000028043
video_on	action	4	eeg	2	7XEbp4eo_UU	Skateboarding	Participating_in_sports&Exercise&Recreation	Sports, Exercise, and Recreation	Participating in Sports, Exercise, or Recreation	Playing sports	176	1	True	True	True	True	0.9757528999907664
video_on	action	4	eeg	2	uGTFwC3WIJk	Riding bumper cars	Relaxing&Leisure	Socializing, Relaxing, and Leisure	Relaxing and Leisure	Playing games	356	3	True	False	False	True	0.9111960000009276
video_on	action	4	eeg	2	FdOyOkjbotM	Rollerblading	Participating_in_sports&Exercise&Recreation	Sports, Exercise, and Recreation	Participating in Sports, Exercise, or Recreation	Playing sports	359	1	True	True	True	True	0.8147463000059361
video_on	action	4	eeg	2	E9hG4rEiFVw	Getting a tattoo	Grooming	Personal Care	Grooming	Washing, dressing and grooming	187	4	True	False	False	True	0.6966682000056608
video_on	action	4	eeg	2	deuSw3RnNLU	Making a lemonade	Food&Drink_prep.&Presentation&Clean-up	Eating and drinking Activities	Food & Drink Prep., Presentation, & Clean-up	Food and drink preparation	333	5	True	False	False	True	3.50985010000295
video_on	action	4	eeg	2	joRvRdqSAE8	Using the balance beam	Participating_in_sports&Exercise&Recreation	Sports, Exercise, and Recreation	Participating in Sports, Exercise, or Recreation	Doing gymnastics	180	1	False	True	False	False	0.0
video_on	action	4	eeg	2	LPe7YZUom_A	Slacklining	Relaxing&Leisure	Socializing, Relaxing, and Leisure	Relaxing and Leisure	Playing games	371	3	True	False	False	True	0.0050717999984044
video_on	action	4	eeg	2	Ug6KYNFmp3o	Pole vault	Participating_in_sports&Exercise&Recreation	Sports, Exercise, and Recreation	Participating in Sports, Exercise, or Recreation	Playing sports	106	1	True	True	True	True	0.8250027000030968
video_on	action	4	eeg	2	CZHIJmSeaRg	Playing flauta	Arts&Entertainment	Socializing, Relaxing, and Leisure	Arts and Entertainment	Playing musical instruments	149	2	True	False	False	True	0.6955755999952089
video_on	action	4	eeg	2	aAXaeISuvxQ	Putting in contact lenses	Grooming	Personal Care	Grooming	Washing, dressing and grooming oneself	351	4	True	False	False	True	3.399089600003208
video_on	action	4	eeg	2	FeI83fwNzNA	Snatch	Participating_in_sports&Exercise&Recreation	Sports, Exercise, and Recreation	Participating in Sports, Exercise, or Recreation	Weightlifting	79	1	True	True	True	True	0.8541844999999739
video_on	action	4	eeg	2	D9tQXsaWLnc	Playing saxophone	Arts&Entertainment	Socializing, Relaxing, and Leisure	Arts and Entertainment	Playing musical instruments	109	2	True	False	False	True	0.9713765999913448
video_on	action	4	eeg	2	vw3GKeeewwk	Hula hoop	Relaxing&Leisure	Socializing, Relaxing, and Leisure	Relaxing and Leisure	Playing games	322	3	True	False	True	False	0.7684189999999944
video_on	action	4	eeg	2	TkdV_ryUCnA	Carving jack-o-lanterns	Interior_maintenance&Repair&Decoration	Household Activities	Interior Maintenance, Repair, & Decoration	Interior arrangement, decoration, & repairs	295	7	True	False	False	True	0.9767358999961288
video_on	action	4	eeg	2	iBtur5sp0OE	Table soccer	Relaxing&Leisure	Socializing, Relaxing, and Leisure	Relaxing and Leisure	Playing games	379	3	True	False	False	True	0.8557539000030374
video_on	action	4	eeg	2	_R7qnELmw-0	Playing bagpipes	Arts&Entertainment	Socializing, Relaxing, and Leisure	Arts and Entertainment	Playing musical instruments	136	2	False	False	False	True	0.0
video_on	action	4	eeg	2	KsDNEG7fd_0	Doing kickboxing	Participating_in_sports&Exercise&Recreation	Sports, Exercise, and Recreation	Participating in Sports, Exercise, or Recreation	Participating in martial arts	70	1	True	True	False	False	0.0051118999981554
video_on	action	4	eeg	2	xmbKtgNrDkE	Playing congas	Arts&Entertainment	Socializing, Relaxing, and Leisure	Arts and Entertainment	Playing musical instruments	345	2	True	False	False	True	0.7301269000017783
video_on	action	4	eeg	2	L-A8RECKhtQ	Cutting the grass	Lawn&Garden&Houseplants	Household Activities	Lawn, Garden, and Houseplants	Lawn, garden, and houseplant care	301	9	True	False	False	True	0.7514788999978919
video_on	action	4	eeg	2	35fgqmj30tc	Swimming	Participating_in_sports&Exercise&Recreation	Sports, Exercise, and Recreation	Participating in Sports, Exercise, or Recreation	Participating in water sports	377	1	True	True	False	False	0.8053980999975465
video_on	action	4	eeg	2	17eEAQb9M6I	Drum corps	Arts&Entertainment	Socializing, Relaxing, and Leisure	Arts and Entertainment	Playing musical instruments	307	2	True	False	False	True	0.6532716999936383
video_on	action	4	eeg	2	CTL3tq1WKHw	Building sandcastles	Arts&Entertainment	Socializing, Relaxing, and Leisure	Arts and Entertainment	Beach activities	286	2	True	False	False	True	0.8867481000052067
video_on	action	4	eeg	2	Z9zyDoh_g9E	Calf roping	Participating_in_sports&Exercise&Recreation	Sports, Exercise, and Recreation	Participating in Sports, Exercise, or Recreation	Participating in rodeo competitions	290	1	True	True	True	True	0.818393699999433
video_on	action	4	eeg	2	Grki1hie8QQ	Surfing	Participating_in_sports&Exercise&Recreation	Sports, Exercise, and Recreation	Participating in Sports, Exercise, or Recreation	Participating in water sports	376	1	True	True	True	True	0.9550840000010794
video_on	action	4	eeg	2	gmYCrK2dRaI	Scuba diving	Participating_in_sports&Exercise&Recreation	Sports, Exercise, and Recreation	Participating in Sports, Exercise, or Recreation	Participating in water sports	364	1	True	True	False	False	1.0735083000035957
video_on	action	4	eeg	2	NaAeWcS0bK4	Welding	Appliances&Tools&Toys	Household Activities	Appliances, Tools, and Toys	Appliance, tool, and toy set-up, repair, & maintenance (by self)	388	10	True	False	False	True	0.8565386999980547
video_on	action	4	eeg	2	E0fa4ghZdS4	Discus throw	Participating_in_sports&Exercise&Recreation	Sports, Exercise, and Recreation	Participating in Sports, Exercise, or Recreation	Playing sports	92	1	True	True	True	True	0.8298743999912404
video_on	action	4	eeg	2	Y82dz6aTwJ0	Putting on shoes	Grooming	Personal Care	Grooming	Washing, dressing and grooming oneself	352	4	True	False	False	True	0.8597052999975858
video_on	action	4	eeg	2	th5qpGUlBnc	Sumo	Participating_in_sports&Exercise&Recreation	Sports, Exercise, and Recreation	Participating in Sports, Exercise, or Recreation	Wrestling	375	1	True	True	True	True	0.8478308000048855
video_on	action	4	eeg	2	njMtD7Hnlb8	Preparing salad	Food&Drink_prep.&Presentation&Clean-up	Eating and drinking Activities	Food & Drink Prep., Presentation, & Clean-up	Food and drink preparation	96	5	True	False	False	True	0.8337658999953419
video_on	action	4	eeg	2	3T-RQfAOizc	Longboarding	Participating_in_sports&Exercise&Recreation	Sports, Exercise, and Recreation	Participating in Sports, Exercise, or Recreation	Playing sports	331	1	True	True	False	False	0.9841333999938796
video_on	action	4	eeg	2	BMfgpbKAoBY	Fun sliding down	Arts&Entertainment	Socializing, Relaxing, and Leisure	Arts and Entertainment	Park activities	313	2	False	False	False	True	0.0
video_on	action	4	eeg	2	Q5_9xLoEMNM	Playing accordion	Arts&Entertainment	Socializing, Relaxing, and Leisure	Arts and Entertainment	Playing musical instruments	267	2	True	False	False	True	0.0051436000067042
video_on	action	4	eeg	2	rZJTlJS11UM	Hanging wallpaper	Interior_maintenance&Repair&Decoration	Household Activities	Interior Maintenance, Repair, & Decoration	Interior arrangement, decoration, & repairs	319	7	True	False	False	True	0.701076400000602
video_on	action	4	eeg	2	ThY4KL0Y018	Hurling	Participating_in_sports&Exercise&Recreation	Sports, Exercise, and Recreation	Participating in Sports, Exercise, or Recreation	Playing sports	323	1	True	True	True	True	0.8494757000007667
video_on	action	4	eeg	2	bTzACIMDU_Q	Playing water polo	Participating_in_sports&Exercise&Recreation	Sports, Exercise, and Recreation	Participating in Sports, Exercise, or Recreation	Participating in water sports	130	1	True	True	True	True	0.9761470000084956
video_on	action	4	eeg	2	1aEVj_rWMYw	Making a sandwich	Food&Drink_prep.&Presentation&Clean-up	Eating and drinking Activities	Food & Drink Prep., Presentation, & Clean-up	Food and drink preparation	129	5	True	False	False	True	0.6929143000015756
video_on	action	4	eeg	2	zBMIGGpouAU	Using the pommel horse	Participating_in_sports&Exercise&Recreation	Sports, Exercise, and Recreation	Participating in Sports, Exercise, or Recreation	Doing gymnastics	114	1	True	True	True	True	0.7714168999955291
video_on	action	4	eeg	2	w0YL5ypZrR8	Putting on makeup	Grooming	Personal Care	Grooming	Washing, dressing and grooming oneself	76	4	True	False	False	True	0.891019700007746
video_on	action	4	eeg	2	tP30Os9naLI	Shaving	Grooming	Personal Care	Grooming	Washing, dressing and grooming oneself	190	4	True	False	False	True	0.8732007999933558
video_on	action	4	eeg	2	QB3-yYt0g6o	Doing motocross	Participating_in_sports&Exercise&Recreation	Sports, Exercise, and Recreation	Participating in Sports, Exercise, or Recreation	Playing sports	243	1	True	True	True	True	0.7920710000034887
video_on	action	4	eeg	2	DFPr5AYzc0E	Disc dog	Animals&Pets	Household Activities	Animals and Pets	Walking / exercising / playing with animals	303	8	True	False	True	False	0.9192391999968096
video_on	action	4	eeg	2	iWexOR4MWoQ	Playing beach volleyball	Participating_in_sports&Exercise&Recreation	Sports, Exercise, and Recreation	Participating in Sports, Exercise, or Recreation	Playing volleyball	341	1	True	True	True	True	0.8173328999982914
video_on	action	4	eeg	2	-3Q3n9MbHgs	Kneeling	Participating_in_sports&Exercise&Recreation	Sports, Exercise, and Recreation	Participating in Sports, Exercise, or Recreation	Working out	328	1	True	True	True	True	0.8624866000027396
video_on	action	4	eeg	2	hTRuHWj4N5U	Smoking a cigarette	Relaxing&Leisure	Socializing, Relaxing, and Leisure	Relaxing and Leisure	Tobacco and drug use	201	3	True	False	False	True	1.7211366999981692
video_on	action	4	eeg	2	gf5K0SQFzkQ	Running a marathon	Participating_in_sports&Exercise&Recreation	Sports, Exercise, and Recreation	Participating in Sports, Exercise, or Recreation	Running	362	1	True	True	True	True	0.6167770000029122
video_on	action	4	eeg	2	cc2f56ZmNpE	Snow tubing	Participating_in_sports&Exercise&Recreation	Sports, Exercise, and Recreation	Participating in Sports, Exercise, or Recreation	Skiing, ice skating, snowboarding	372	1	True	True	True	True	0.8403323999955319
video_on	action	4	eeg	2	2QtOJ9nvw1w	Trimming branches or hedges	Lawn&Garden&Houseplants	Household Activities	Lawn, Garden, and Houseplants	Lawn, garden, and houseplant care	381	9	True	False	False	True	0.7603319000045303
video_on	action	4	eeg	2	pJEOK1DbTfU	Using uneven bars	Participating_in_sports&Exercise&Recreation	Sports, Exercise, and Recreation	Participating in Sports, Exercise, or Recreation	Doing gymnastics	192	1	True	True	True	True	0.8488482999964617
video_on	action	4	eeg	2	jRqea0l-h_o	Ice fishing	Participating_in_sports&Exercise&Recreation	Sports, Exercise, and Recreation	Participating in Sports, Exercise, or Recreation	Fishing	324	1	False	True	False	False	0.0
video_on	action	4	meg	3	aiLAIhT1SeI	Skateboarding	Participating_in_sports&Exercise&Recreation	Sports, Exercise, and Recreation	Participating in Sports, Exercise, or Recreation	Playing sports	176	1	True	True	True	True	0.5263864424923668
video_on	action	4	meg	3	KOYA3PA8Yqc	Mooping floor	Housework	Household Activities	Housework	Interior cleaning	335	6	True	False	False	True	0.5271260193694616
video_on	action	4	meg	3	0v8fqweLOqo	Snow tubing	Participating_in_sports&Exercise&Recreation	Sports, Exercise, and Recreation	Participating in Sports, Exercise, or Recreation	Skiing, ice skating, snowboarding	372	1	True	True	True	True	0.4576003598340321
video_on	action	4	meg	3	xvBJdDakYKU	Playing pool	Relaxing&Leisure	Socializing, Relaxing, and Leisure	Relaxing and Leisure	Playing games	348	3	True	False	True	False	0.3536623393883928
video_on	action	4	meg	3	YjKxgp1Fx60	Futsal	Participating_in_sports&Exercise&Recreation	Sports, Exercise, and Recreation	Participating in Sports, Exercise, or Recreation	Playing soccer	315	1	True	True	True	True	0.4398387420515064
video_on	action	4	meg	3	2QptL8XKS_A	Cleaning windows	Housework	Household Activities	Housework	Interior cleaning	143	6	True	False	False	True	0.5038637608959107
video_on	action	4	meg	3	0vJfctL116Y	Preparing salad	Food&Drink_prep.&Presentation&Clean-up	Eating and drinking Activities	Food & Drink Prep., Presentation, & Clean-up	Food and drink preparation	96	5	True	False	False	True	0.3854333543131361
video_on	action	4	meg	3	DkeQ3pdAFnE	Throwing darts	Relaxing&Leisure	Socializing, Relaxing, and Leisure	Relaxing and Leisure	Playing games	380	3	True	False	False	True	0.4241720889694989
video_on	action	4	meg	3	lELcTXacvAQ	Playing guitarra	Arts&Entertainment	Socializing, Relaxing, and Leisure	Arts and Entertainment	Playing musical instruments	251	2	True	False	False	True	0.6001645181095228
video_on	action	4	meg	3	4lzwDPbQkDQ	Using parallel bars	Participating_in_sports&Exercise&Recreation	Sports, Exercise, and Recreation	Participating in Sports, Exercise, or Recreation	Doing gymnastics	88	1	True	True	True	True	0.4485156390292104
video_on	action	4	meg	3	tlFu8-DKihg	Rafting	Participating_in_sports&Exercise&Recreation	Sports, Exercise, and Recreation	Participating in Sports, Exercise, or Recreation	Boating	353	1	True	True	True	True	0.5688662286702311
video_on	action	4	meg	3	K8DimjS6n8o	Waterskiing	Participating_in_sports&Exercise&Recreation	Sports, Exercise, and Recreation	Participating in Sports, Exercise, or Recreation	Participating in water sports	386	1	True	True	False	False	0.7046688431291841
video_on	action	4	meg	3	sUoUkKRsA9c	Fixing the roof	Exterior_maintenance&Repair&Decoration	Household Activities	Exterior Maintenance, Repair, & Decoration	Exterior repair, improvements, & decoration	311	12	True	False	False	True	0.417002419475466
video_on	action	4	meg	3	x77iJY3IgbI	Scuba diving	Participating_in_sports&Exercise&Recreation	Sports, Exercise, and Recreation	Participating in Sports, Exercise, or Recreation	Participating in water sports	364	1	True	True	True	True	0.3764023660478415
video_on	action	4	meg	3	WIoajTUZyl0	Cutting the grass	Lawn&Garden&Houseplants	Household Activities	Lawn, Garden, and Houseplants	Lawn, garden, and houseplant care	301	9	True	False	False	True	0.5292572082253173
video_on	action	4	meg	3	An0xuHnJgDg	Calf roping	Participating_in_sports&Exercise&Recreation	Sports, Exercise, and Recreation	Participating in Sports, Exercise, or Recreation	Participating in rodeo competitions	290	1	True	True	True	True	0.4836992729542544
video_on	action	4	meg	3	YTNLmB5MjRI	Painting fence	Exterior_maintenance&Repair&Decoration	Household Activities	Exterior Maintenance, Repair, & Decoration	Painting fence	336	12	True	False	False	True	0.6330512375861872
video_on	action	4	meg	3	q_afPZxhH7U	Bullfighting	Participating_in_sports&Exercise&Recreation	Sports, Exercise, and Recreation	Participating in Sports, Exercise, or Recreation	Participating in rodeo competitions	288	1	True	True	True	True	0.3689667507424019
video_on	action	4	meg	3	oVilcBA3b50	Capoeira	Participating_in_sports&Exercise&Recreation	Sports, Exercise, and Recreation	Participating in Sports, Exercise, or Recreation	Participating in martial arts	294	1	True	True	True	True	0.4360400337609462
video_on	action	4	meg	3	v0N4o4Px8jQ	Playing squash	Participating_in_sports&Exercise&Recreation	Sports, Exercise, and Recreation	Participating in Sports, Exercise, or Recreation	Playing racquet sports	194	1	True	True	True	True	0.4115256263467017
video_on	action	4	meg	3	UsfY0koD_10	Arm wrestling	Participating_in_sports&Exercise&Recreation	Sports, Exercise, and Recreation	Participating in Sports, Exercise, or Recreation	Wrestling	271	1	True	True	False	False	0.529700350612984
video_on	action	4	meg	3	7AFp_1i2B_0	Table soccer	Relaxing&Leisure	Socializing, Relaxing, and Leisure	Relaxing and Leisure	Playing games	379	3	True	False	False	True	0.4207187177817104
video_on	action	4	meg	3	QZrzMGdUjms	Ballet	Arts&Entertainment	Socializing, Relaxing, and Leisure	Arts and Entertainment	Attending arts and entertainment	229	2	True	False	False	True	0.4019718025083421
video_on	action	4	meg	3	Pu4ZdV1I1qg	Welding	Appliances&Tools&Toys	Household Activities	Appliances, Tools, and Toys	Appliance, tool, and toy set-up, repair, & maintenance (by self)	388	10	True	False	False	True	0.604187212564284
video_on	action	4	meg	3	PUyvJQEA6N0	Running a marathon	Participating_in_sports&Exercise&Recreation	Sports, Exercise, and Recreation	Participating in Sports, Exercise, or Recreation	Running	362	1	True	True	False	False	0.4523526845878223
video_on	action	4	meg	3	3kpaRxxEtIc	Playing violin	Arts&Entertainment	Socializing, Relaxing, and Leisure	Arts and Entertainment	Playing musical instruments	234	2	True	False	False	True	0.4343130462948465
video_on	action	4	meg	3	2I-gHcmCUoQ	Tai chi	Participating_in_sports&Exercise&Recreation	Sports, Exercise, and Recreation	Participating in Sports, Exercise, or Recreation	Participating in martial arts	263	1	True	True	False	False	0.7065841963049024
video_on	action	4	meg	3	Jv3vQuncBgw	Doing motocross	Participating_in_sports&Exercise&Recreation	Sports, Exercise, and Recreation	Participating in Sports, Exercise, or Recreation	Playing sports	243	1	True	True	True	True	0.563310044206446
video_on	action	4	meg	3	3GDYzINUMoo	Brushing hair	Grooming	Personal Care	Grooming	Washing, dressing and grooming oneself	125	4	True	False	False	True	0.4915381840546615
video_on	action	4	meg	3	kTtJjLMeMIE	Horseback riding	Participating_in_sports&Exercise&Recreation	Sports, Exercise, and Recreation	Participating in Sports, Exercise, or Recreation	Participating in equestrian sports	175	1	True	True	False	False	0.515699405776104
video_on	action	4	meg	3	PX8Bx6UVJfs	Camel ride	Participating_in_sports&Exercise&Recreation	Sports, Exercise, and Recreation	Participating in Sports, Exercise, or Recreation	Playing sports	291	1	True	True	False	False	0.5792541140835965
video_on	action	4	meg	3	C2nxo-KVCJ4	Getting a piercing	Grooming	Personal Care	Grooming	Washing, dressing and grooming	214	4	True	False	False	True	0.6680489207501523
video_on	action	4	meg	3	OQS8KPLNLeY	Baton twirling	Participating_in_sports&Exercise&Recreation	Sports, Exercise, and Recreation	Participating in Sports, Exercise, or Recreation	Playing sports	277	1	True	True	True	True	0.5000973524583969
video_on	action	4	meg	3	Vpb89P9VgV0	Bathing dog	Animals&Pets	Household Activities	Animals and Pets	Care for animals and pets (not veterinary care)	90	8	True	False	False	True	0.5543705219752155
video_on	action	4	meg	3	BTj5zGLJDT4	Laying tile	Interior_maintenance&Repair&Decoration	Household Activities	Interior Maintenance, Repair, & Decoration	Interior arrangement, decoration, & repairs	330	7	True	False	False	True	0.5237958103825804
video_on	action	4	meg	3	yFqQqlqEWi0	Grooming dog	Animals&Pets	Household Activities	Animals and Pets	Care for animals and pets (not veterinary care)	317	8	True	False	False	True	0.5800232740293723
video_on	action	4	meg	3	-vYVMZb7-JA	Fixing bicycle	Vehicles	Household Activities	Vehicles	Vehicle repair and maintenance (by self)	171	11	True	False	False	True	0.4361215381359216
video_on	action	4	meg	3	xZSKgRr2nDI	Wakeboarding	Participating_in_sports&Exercise&Recreation	Sports, Exercise, and Recreation	Participating in Sports, Exercise, or Recreation	Participating in water sports	385	1	True	True	True	True	0.4709118379105348
video_on	action	4	meg	3	dPlQrx4jx3A	Playing badminton	Participating_in_sports&Exercise&Recreation	Sports, Exercise, and Recreation	Participating in Sports, Exercise, or Recreation	Playing racquet sports	268	1	True	True	True	True	0.4276553451054496
video_on	action	4	meg	3	ZYLa82RsZZ4	Chopping wood	Interior_maintenance&Repair&Decoration	Household Activities	Interior Maintenance, Repair, & Decoration	Heating and cooling	110	7	True	False	True	False	0.5667030417680508
video_on	action	4	meg	3	DHtbGKVfz20	Hurling	Participating_in_sports&Exercise&Recreation	Sports, Exercise, and Recreation	Participating in Sports, Exercise, or Recreation	Playing sports	323	1	True	True	True	True	0.5328370621573413
video_on	action	4	meg	3	xkFw4GQYiJY	Croquet	Participating_in_sports&Exercise&Recreation	Sports, Exercise, and Recreation	Participating in Sports, Exercise, or Recreation	Playing sports	299	1	True	True	True	True	0.4209040647983784
video_on	action	4	meg	3	yhHBFnDTCSM	Surfing	Participating_in_sports&Exercise&Recreation	Sports, Exercise, and Recreation	Participating in Sports, Exercise, or Recreation	Participating in water sports	376	1	True	True	True	True	0.4838028137019137
video_on	action	4	meg	3	ugLZe7Ndqrs	Hula hoop	Relaxing&Leisure	Socializing, Relaxing, and Leisure	Relaxing and Leisure	Playing games	322	3	False	False	False	True	0.0
video_on	action	4	meg	3	jcKfLY-IgFg	Spinning	Participating_in_sports&Exercise&Recreation	Sports, Exercise, and Recreation	Participating in Sports, Exercise, or Recreation	Using cardiovascular equipment	117	1	True	True	True	True	0.4775025243725395
video_on	action	4	meg	3	SU13BnZFebw	Bungee jumping	Participating_in_sports&Exercise&Recreation	Sports, Exercise, and Recreation	Participating in Sports, Exercise, or Recreation	Playing sports	154	1	True	True	True	True	0.4536652071255957
video_on	action	4	meg	3	EbKftU7FYTg	Playing beach volleyball	Participating_in_sports&Exercise&Recreation	Sports, Exercise, and Recreation	Participating in Sports, Exercise, or Recreation	Playing volleyball	341	1	True	True	True	True	0.4478732636925997
video_on	action	4	meg	3	Yb_9T7MdHhw	Kneeling	Participating_in_sports&Exercise&Recreation	Sports, Exercise, and Recreation	Participating in Sports, Exercise, or Recreation	Working out	328	1	True	True	True	True	0.4638882725848816
video_on	action	4	meg	3	R8VRG2yi3A4	Swinging at the playground	Arts&Entertainment	Socializing, Relaxing, and Leisure	Arts and Entertainment	Park activities	378	2	True	False	False	True	0.4961724632885307
video_on	action	4	meg	3	nBLyNMGwmj0	Shoveling snow	Exterior_maintenance&Repair&Decoration	Household Activities	Exterior Maintenance, Repair, & Decoration	Exterior cleaning	183	12	True	False	False	True	0.3501277656905586
video_on	action	4	meg	3	dt_70aYwigw	Cleaning shoes	Housework	Household Activities	Housework	Sewing, repairing, & maintaining textiles	134	6	True	False	False	True	0.4245204447797732
video_on	action	4	meg	3	-kBCU7Jhw94	Pole vault	Participating_in_sports&Exercise&Recreation	Sports, Exercise, and Recreation	Participating in Sports, Exercise, or Recreation	Playing sports	106	1	True	True	True	True	0.4566624556027818
video_on	action	4	meg	3	3PfOid2Wq2w	Beer pong	Relaxing&Leisure	Socializing, Relaxing, and Leisure	Relaxing and Leisure	Playing games	280	3	True	False	False	True	0.5893594509543618
video_on	action	4	meg	3	tcl_v5MqIvA	Disc dog	Animals&Pets	Household Activities	Animals and Pets	Walking / exercising / playing with animals	303	8	True	False	False	True	0.5588611119892448
video_on	action	4	meg	3	40-nilwXFgo	Kite flying	Relaxing&Leisure	Socializing, Relaxing, and Leisure	Relaxing and Leisure	Playing games	327	3	True	False	False	True	0.5889081581408391
video_on	action	4	meg	3	C-Rx87Pv7ic	Playing bagpipes	Arts&Entertainment	Socializing, Relaxing, and Leisure	Arts and Entertainment	Playing musical instruments	136	2	True	False	False	True	0.3832756010524463
video_on	action	4	meg	3	Xkc1XxYsvJQ	Tug of war	Relaxing&Leisure	Socializing, Relaxing, and Leisure	Relaxing and Leisure	Playing games	382	3	True	False	True	False	0.3935318719886709
video_on	action	4	meg	3	ro9lo6CPrfs	Putting in contact lenses	Grooming	Personal Care	Grooming	Washing, dressing and grooming oneself	351	4	True	False	False	True	0.7034489940997446
video_on	action	4	meg	3	Jad1jnjUDAU	Beach soccer	Participating_in_sports&Exercise&Recreation	Sports, Exercise, and Recreation	Participating in Sports, Exercise, or Recreation	Playing soccer	278	1	True	True	True	True	0.4394472191197565
video_on	action	4	meg	3	8MLr_wMiisY	Drinking coffee	Food&Drink_prep.&Presentation&Clean-up	Eating and drinking Activities	Food & Drink Prep., Presentation, & Clean-up	Eating and Drinking	68	5	True	False	False	True	0.3858200473623583
video_on	action	4	meg	3	TJsaf-0p1uI	Snowboarding	Participating_in_sports&Exercise&Recreation	Sports, Exercise, and Recreation	Participating in Sports, Exercise, or Recreation	Skiing, ice skating, snowboarding	373	1	True	True	True	True	0.4066936234885361
video_on	action	4	meg	3	wyhyTOj4w0c	Getting a tattoo	Grooming	Personal Care	Grooming	Washing, dressing and grooming	187	4	True	False	False	True	0.4952795374119887
video_on	action	4	meg	3	r2Ojry0a3EM	Blow-drying hair	Grooming	Personal Care	Grooming	Washing, dressing and grooming oneself	281	4	True	False	False	True	0.41705917067884
video_on	action	4	meg	3	ukUXl-EJUaQ	Rope skipping	Participating_in_sports&Exercise&Recreation	Sports, Exercise, and Recreation	Participating in Sports, Exercise, or Recreation	Working out	361	1	True	True	True	True	0.4345777846174314
video_on	action	4	meg	3	65BTx6yfc0o	Grooming horse	Animals&Pets	Household Activities	Animals and Pets	Walking / exercising / playing with animals	95	8	True	False	False	True	0.4310308343265205
video_on	action	4	meg	3	mlaOYxDZb2U	Archery	Participating_in_sports&Exercise&Recreation	Sports, Exercise, and Recreation	Participating in Sports, Exercise, or Recreation	Playing sports	250	1	True	True	True	True	0.5388632552640047
video_on	action	4	meg	3	y799pWdiMQw	Long jump	Participating_in_sports&Exercise&Recreation	Sports, Exercise, and Recreation	Participating in Sports, Exercise, or Recreation	Playing sports	80	1	True	True	True	True	0.4008766249899054
video_on	action	4	meg	3	ok5O-0SeNdM	Trimming branches or hedges	Lawn&Garden&Houseplants	Household Activities	Lawn, Garden, and Houseplants	Lawn, garden, and houseplant care	381	9	True	False	False	True	0.4250212439656025
video_on	action	4	meg	3	58Vh48aQrJA	Tango	Arts&Entertainment	Socializing, Relaxing, and Leisure	Arts and Entertainment	Dancing	73	2	True	False	False	True	0.4513257292710477
video_on	action	4	meg	3	TlEFSlAqFW0	Playing polo	Participating_in_sports&Exercise&Recreation	Sports, Exercise, and Recreation	Participating in Sports, Exercise, or Recreation	Participating in equestrian sports	75	1	True	True	True	True	0.3534797091706423
video_on	action	4	meg	3	N0ZQyqIQyYA	Wrapping presents	Household_management	Household Activities	Household Management	Household & personal organization and planning	179	13	True	False	False	True	0.4895476657256949
video_on	action	4	meg	3	QEppbMXS0gI	Doing kickboxing	Participating_in_sports&Exercise&Recreation	Sports, Exercise, and Recreation	Participating in Sports, Exercise, or Recreation	Participating in martial arts	70	1	True	True	True	True	0.4263542935368605
video_on	action	4	meg	3	KSWhapDFr0I	Plastering	Interior_maintenance&Repair&Decoration	Household Activities	Interior Maintenance, Repair, & Decoration	Interior arrangement, decoration, & repairs	340	7	True	False	False	True	0.5479814834106946
video_on	action	4	meg	3	bCdsRRV2zBs	Paintball	Participating_in_sports&Exercise&Recreation	Sports, Exercise, and Recreation	Participating in Sports, Exercise, or Recreation	Playing sports	141	1	True	True	False	False	0.3619359405711293
video_on	action	4	meg	3	83TsRANhreU	Springboard diving	Participating_in_sports&Exercise&Recreation	Sports, Exercise, and Recreation	Participating in Sports, Exercise, or Recreation	Participating in water sports	193	1	True	True	True	True	0.450095012987731
video_on	action	4	meg	3	suoxBRRXzik	Doing crunches	Participating_in_sports&Exercise&Recreation	Sports, Exercise, and Recreation	Participating in Sports, Exercise, or Recreation	Working out	305	1	True	True	True	True	0.5229554095567437
video_on	action	4	meg	3	p-71FQyOZas	Raking leaves	Lawn&Garden&Houseplants	Household Activities	Lawn, Garden, and Houseplants	Lawn, garden, and houseplant care	354	9	True	False	False	True	0.7142640228994424
video_on	action	4	meg	3	eaH7yzC18FA	Playing flauta	Arts&Entertainment	Socializing, Relaxing, and Leisure	Arts and Entertainment	Playing musical instruments	149	2	True	False	False	True	0.5807088165020104
video_on	action	4	meg	3	iFlqIVh825g	Playing water polo	Participating_in_sports&Exercise&Recreation	Sports, Exercise, and Recreation	Participating in Sports, Exercise, or Recreation	Participating in water sports	130	1	True	True	True	True	0.4849148958310252
video_on	action	4	meg	3	TvNaC3n62Es	Hanging wallpaper	Interior_maintenance&Repair&Decoration	Household Activities	Interior Maintenance, Repair, & Decoration	Interior arrangement, decoration, & repairs	319	7	True	False	False	True	0.4828990205860464
video_on	action	4	meg	3	DX0kgrc0QBY	Doing nails	Grooming	Personal Care	Grooming	Washing, dressing and grooming oneself	167	4	True	False	False	True	0.6270836069015786
video_on	action	4	meg	3	vf8s-Bx-UYk	Doing karate	Participating_in_sports&Exercise&Recreation	Sports, Exercise, and Recreation	Participating in Sports, Exercise, or Recreation	Participating in martial arts	99	1	True	True	True	True	0.5171707109402632
video_on	action	4	meg	3	FHb7Dxs-2PM	Making a lemonade	Food&Drink_prep.&Presentation&Clean-up	Eating and drinking Activities	Food & Drink Prep., Presentation, & Clean-up	Food and drink preparation	333	5	True	False	False	True	0.7153392771142535
video_on	action	4	meg	3	ApOE_vnl5Sc	Smoking hookah	Relaxing&Leisure	Socializing, Relaxing, and Leisure	Relaxing and Leisure	Tobacco and drug use	189	3	True	False	False	True	0.395586386352079
video_on	action	4	meg	3	4cLhk5djK4Y	Doing step aerobics	Participating_in_sports&Exercise&Recreation	Sports, Exercise, and Recreation	Participating in Sports, Exercise, or Recreation	Doing aerobics	230	1	True	True	True	True	0.4515376406925497
video_on	action	4	meg	3	MW4JReeFcXs	Baking cookies	Food&Drink_prep.&Presentation&Clean-up	Eating and drinking Activities	Food & Drink Prep., Presentation, & Clean-up	Food and drink preparation	276	5	True	False	False	True	0.5319027803634526
video_on	action	4	meg	3	ZZ83BwZcXWA	Ironing clothes	Housework	Household Activities	Housework	Laundry	83	6	True	False	False	True	0.6040248075150885
video_on	action	4	meg	3	p-CCgzL3WLs	Starting a campfire	Participating_in_sports&Exercise&Recreation	Sports, Exercise, and Recreation	Participating in Sports, Exercise, or Recreation	Playing sports	153	1	True	True	False	False	0.3720180336094927
video_on	action	4	meg	3	o2WD85-5GZ4	Doing fencing	Participating_in_sports&Exercise&Recreation	Sports, Exercise, and Recreation	Participating in Sports, Exercise, or Recreation	Fencing	309	1	True	True	True	True	0.3882205025875009
video_on	action	4	meg	3	uHGz3Li2cv4	High jump	Participating_in_sports&Exercise&Recreation	Sports, Exercise, and Recreation	Participating in Sports, Exercise, or Recreation	Playing sports	195	1	False	True	False	False	0.0
video_on	action	4	eeg	3	eNwyd2PIkbo	Baking cookies	Food&Drink_prep.&Presentation&Clean-up	Eating and drinking Activities	Food & Drink Prep., Presentation, & Clean-up	Food and drink preparation	276	5	True	False	False	True	0.7329796999983955
video_on	action	4	eeg	3	4RCWPkwx8hc	Triple jump	Participating_in_sports&Exercise&Recreation	Sports, Exercise, and Recreation	Participating in Sports, Exercise, or Recreation	Playing sports	155	1	True	True	True	True	0.9370127000001958
video_on	action	4	eeg	3	06cIkdMMEQg	Cleaning windows	Housework	Household Activities	Housework	Interior cleaning	143	6	True	False	False	True	0.9766099999978906
video_on	action	4	eeg	3	zXalwj_2Vp4	Disc dog	Animals&Pets	Household Activities	Animals and Pets	Walking / exercising / playing with animals	303	8	True	False	False	True	0.9798128999973414
video_on	action	4	eeg	3	0CoTy4wb7jY	Drum corps	Arts&Entertainment	Socializing, Relaxing, and Leisure	Arts and Entertainment	Playing musical instruments	307	2	True	False	True	False	0.7079344999947352
video_on	action	4	eeg	3	jLtmCp5BoKI	Using the rowing machine	Participating_in_sports&Exercise&Recreation	Sports, Exercise, and Recreation	Participating in Sports, Exercise, or Recreation	Using cardiovascular equipment	384	1	True	True	True	True	0.7126185999950394
video_on	action	4	eeg	3	d2TalcqRRwY	Playing lacrosse	Participating_in_sports&Exercise&Recreation	Sports, Exercise, and Recreation	Participating in Sports, Exercise, or Recreation	Playing racquet sports	209	1	True	True	True	True	0.760941600005026
video_on	action	4	eeg	3	PpS0pF8S-YY	Hand car wash	Vehicles	Household Activities	Vehicles	Vehicle repair and maintenance (by self)	318	11	True	False	False	True	0.9580101999890758
