event_name	task	subject	session	run	video_id	class_name	raw_superclass_name	superclass_level0	superclass_level1	superclass_level2	class_id	superclass_id	is_resp	stim_is_sports	resp_is_sports	resp_is_right	resp_time
video_on	action	20	meg	1	KJILVY-n4Ws	Fun sliding down	Arts&Entertainment	Socializing, Relaxing, and Leisure	Arts and Entertainment	Park activities	313	2	True	False	False	True	0.5570120824268088
video_on	action	20	meg	1	4GGGS_CMd1A	Capoeira	Participating_in_sports&Exercise&Recreation	Sports, Exercise, and Recreation	Participating in Sports, Exercise, or Recreation	Participating in martial arts	294	1	True	True	True	True	0.6270488351583481
video_on	action	20	meg	1	6y-QeOBq3Pw	Fixing bicycle	Vehicles	Household Activities	Vehicles	Vehicle repair and maintenance (by self)	171	11	True	False	False	True	0.4831050435313955
video_on	action	20	meg	1	Vls75LqWib4	Walking the dog	Animals&Pets	Household Activities	Animals and Pets	Walking / exercising / playing with animals	221	8	True	False	False	True	0.4498983449302614
video_on	action	20	meg	1	typjqwjZsoo	Putting in contact lenses	Grooming	Personal Care	Grooming	Washing, dressing and grooming oneself	351	4	True	False	False	True	0.4014091331046074
video_on	action	20	meg	1	GGZZqijBgeI	Hopscotch	Relaxing&Leisure	Socializing, Relaxing, and Leisure	Relaxing and Leisure	Playing games	241	3	True	False	False	True	0.3714466405799612
video_on	action	20	meg	1	v02AcklHhhs	Javelin throw	Participating_in_sports&Exercise&Recreation	Sports, Exercise, and Recreation	Participating in Sports, Exercise, or Recreation	Playing sports	116	1	False	True	False	False	0.0
video_on	action	20	meg	1	ANzHioq_KjY	Doing kickboxing	Participating_in_sports&Exercise&Recreation	Sports, Exercise, and Recreation	Participating in Sports, Exercise, or Recreation	Participating in martial arts	70	1	True	True	True	True	0.005097089218907
video_on	action	20	meg	1	AQZcrzRzuns	Making an omelette	Food&Drink_prep.&Presentation&Clean-up	Eating and drinking Activities	Food & Drink Prep., Presentation, & Clean-up	Food and drink preparation	334	5	True	False	False	True	0.7627228749915957
video_on	action	20	meg	1	yqJXWU8BXEQ	Wrapping presents	Household_management	Household Activities	Household Management	Household & personal organization and planning	179	13	True	False	False	True	0.3627787211444229
video_on	action	20	meg	1	GlCEwdDze18	Playing kickball	Participating_in_sports&Exercise&Recreation	Sports, Exercise, and Recreation	Participating in Sports, Exercise, or Recreation	Playing sports	257	1	True	True	False	False	0.3629912382457405
video_on	action	20	meg	1	L-2sx1qYHkA	Baking cookies	Food&Drink_prep.&Presentation&Clean-up	Eating and drinking Activities	Food & Drink Prep., Presentation, & Clean-up	Food and drink preparation	276	5	True	False	False	True	0.4525049997027963
video_on	action	20	meg	1	6zDxaSCLoE4	Playing pool	Relaxing&Leisure	Socializing, Relaxing, and Leisure	Relaxing and Leisure	Playing games	348	3	True	False	True	False	0.96685910935048
video_on	action	20	meg	1	n8NNHk0xSdw	Smoking hookah	Relaxing&Leisure	Socializing, Relaxing, and Leisure	Relaxing and Leisure	Tobacco and drug use	189	3	True	False	False	True	0.5343759952811524
video_on	action	20	meg	1	Zjg4NDADHuo	Sharpening knives	Appliances&Tools&Toys	Household Activities	Appliances, Tools, and Toys	Appliance, tool, and toy set-up, repair, & maintenance (by self)	365	10	True	False	False	True	0.5475514500867575
video_on	action	20	meg	1	5xHeqfqDtgA	Rope skipping	Participating_in_sports&Exercise&Recreation	Sports, Exercise, and Recreation	Participating in Sports, Exercise, or Recreation	Working out	361	1	True	True	False	False	0.2793310541892424
video_on	action	20	meg	1	Wbk-3Txarhg	Slacklining	Relaxing&Leisure	Socializing, Relaxing, and Leisure	Relaxing and Leisure	Playing games	371	3	True	False	False	True	0.383478608680889
video_on	action	20	meg	1	GIHf6H5c90I	Bungee jumping	Participating_in_sports&Exercise&Recreation	Sports, Exercise, and Recreation	Participating in Sports, Exercise, or Recreation	Playing sports	154	1	True	True	False	False	0.679407729418017
video_on	action	20	meg	1	UMRIPz6gOrk	Springboard diving	Participating_in_sports&Exercise&Recreation	Sports, Exercise, and Recreation	Participating in Sports, Exercise, or Recreation	Participating in water sports	193	1	True	True	True	True	0.4687993841944262
video_on	action	20	meg	1	DQCWlWNiFlU	Spinning	Participating_in_sports&Exercise&Recreation	Sports, Exercise, and Recreation	Participating in Sports, Exercise, or Recreation	Using cardiovascular equipment	117	1	True	True	True	True	0.4697463529882952
video_on	action	20	meg	1	6UiIl0rbrlU	Putting on makeup	Grooming	Personal Care	Grooming	Washing, dressing and grooming oneself	76	4	True	False	False	True	0.5439271887298673
video_on	action	20	meg	1	pyhjEHWrnSw	Disc dog	Animals&Pets	Household Activities	Animals and Pets	Walking / exercising / playing with animals	303	8	True	False	False	True	0.0650006415089592
video_on	action	20	meg	1	jp_AXXik6zM	Calf roping	Participating_in_sports&Exercise&Recreation	Sports, Exercise, and Recreation	Participating in Sports, Exercise, or Recreation	Participating in rodeo competitions	290	1	True	True	True	True	0.4534371769987046
video_on	action	20	meg	1	P_e4BlO947E	Using uneven bars	Participating_in_sports&Exercise&Recreation	Sports, Exercise, and Recreation	Participating in Sports, Exercise, or Recreation	Doing gymnastics	192	1	True	True	True	True	0.2376067679142579
video_on	action	20	meg	1	lTP0-Oo1Pcc	Plataform diving	Participating_in_sports&Exercise&Recreation	Sports, Exercise, and Recreation	Participating in Sports, Exercise, or Recreation	Participating in water sports	233	1	True	True	True	True	0.525765129365027
video_on	action	20	meg	1	FZ5jDrBxl0Y	Powerbocking	Participating_in_sports&Exercise&Recreation	Sports, Exercise, and Recreation	Participating in Sports, Exercise, or Recreation	Playing sports	350	1	True	True	False	False	0.5208751235622913
video_on	action	20	meg	1	V887wNhhHqc	Ironing clothes	Housework	Household Activities	Housework	Laundry	83	6	True	False	False	True	0.1180173123721033
video_on	action	20	meg	1	Gj5agmKRJB4	Doing nails	Grooming	Personal Care	Grooming	Washing, dressing and grooming oneself	167	4	True	False	False	True	0.7908723312430084
video_on	action	20	meg	1	JXJ5Bem1ktY	Mowing the lawn	Lawn&Garden&Houseplants	Household Activities	Lawn, Garden, and Houseplants	Lawn, garden, and houseplant care	218	9	True	False	False	True	0.4303977903909981
video_on	action	20	meg	1	q5m8InJ5_nU	Shoveling snow	Exterior_maintenance&Repair&Decoration	Household Activities	Exterior Maintenance, Repair, & Decoration	Exterior cleaning	183	12	True	False	False	True	0.6893042632145807
video_on	action	20	meg	1	SF-tWX5rifM	Drinking coffee	Food&Drink_prep.&Presentation&Clean-up	Eating and drinking Activities	Food & Drink Prep., Presentation, & Clean-up	Eating and Drinking	68	5	True	False	False	True	0.3667356441728771
video_on	action	20	meg	1	crpyykf_zgI	Having an ice cream	Food&Drink_prep.&Presentation&Clean-up	Eating and drinking Activities	Food & Drink Prep., Presentation, & Clean-up	Eating and Drinking	320	5	True	False	False	True	0.4063652486074716
video_on	action	20	meg	1	fVGn4luNLow	Playing water polo	Participating_in_sports&Exercise&Recreation	Sports, Exercise, and Recreation	Participating in Sports, Exercise, or Recreation	Participating in water sports	130	1	True	True	True	True	0.7051404076628387
video_on	action	20	meg	1	jSINaq0rGgw	Running a marathon	Participating_in_sports&Exercise&Recreation	Sports, Exercise, and Recreation	Participating in Sports, Exercise, or Recreation	Running	362	1	True	True	True	True	0.5431848884327337
video_on	action	20	meg	1	50IBCt1eSYQ	Hanging wallpaper	Interior_maintenance&Repair&Decoration	Household Activities	Interior Maintenance, Repair, & Decoration	Interior arrangement, decoration, & repairs	319	7	True	False	False	True	0.4660734904464334
video_on	action	20	meg	1	93cu6w2rHLg	Using parallel bars	Participating_in_sports&Exercise&Recreation	Sports, Exercise, and Recreation	Participating in Sports, Exercise, or Recreation	Doing gymnastics	88	1	True	True	True	True	0.7915790108963847
video_on	action	20	meg	1	jKrUgw06MeQ	Doing fencing	Participating_in_sports&Exercise&Recreation	Sports, Exercise, and Recreation	Participating in Sports, Exercise, or Recreation	Fencing	309	1	True	True	True	True	0.4984095934778452
video_on	action	20	meg	1	F-TwH1op_3Y	Table soccer	Relaxing&Leisure	Socializing, Relaxing, and Leisure	Relaxing and Leisure	Playing games	379	3	True	False	False	True	0.4820934742456302
video_on	action	20	meg	1	c-t0kTyV68U	Bullfighting	Participating_in_sports&Exercise&Recreation	Sports, Exercise, and Recreation	Participating in Sports, Exercise, or Recreation	Participating in rodeo competitions	288	1	True	True	False	False	0.5118926547002047
video_on	action	20	meg	1	zM4n0D3fouk	Rafting	Participating_in_sports&Exercise&Recreation	Sports, Exercise, and Recreation	Participating in Sports, Exercise, or Recreation	Boating	353	1	True	True	False	False	0.3521305288886651
video_on	action	20	meg	1	cP4M7k_XZEk	Volleyball	Participating_in_sports&Exercise&Recreation	Sports, Exercise, and Recreation	Participating in Sports, Exercise, or Recreation	Playing volleyball	123	1	True	True	True	True	0.4665130143985152
video_on	action	20	meg	1	iqpgevMTQIA	Tango	Arts&Entertainment	Socializing, Relaxing, and Leisure	Arts and Entertainment	Dancing	73	2	True	False	False	True	0.5715845956001431
video_on	action	20	meg	1	JmmVd5rvAlU	Hammer throw	Participating_in_sports&Exercise&Recreation	Sports, Exercise, and Recreation	Participating in Sports, Exercise, or Recreation	Playing sports	224	1	True	True	True	True	0.5287479151738808
video_on	action	20	meg	1	77u-THSfACo	Hitting a pinata	Relaxing&Leisure	Socializing, Relaxing, and Leisure	Relaxing and Leisure	Playing games	321	3	True	False	False	True	0.4508797271410003
video_on	action	20	meg	1	hExnPqmIn5s	Cutting the grass	Lawn&Garden&Houseplants	Household Activities	Lawn, Garden, and Houseplants	Lawn, garden, and houseplant care	301	9	True	False	False	True	0.737578543019481
video_on	action	20	meg	1	xH8l5rCWrMU	Preparing salad	Food&Drink_prep.&Presentation&Clean-up	Eating and drinking Activities	Food & Drink Prep., Presentation, & Clean-up	Food and drink preparation	96	5	True	False	False	True	0.4417206638026982
video_on	action	20	meg	1	ChzxLuPuguU	Playing bagpipes	Arts&Entertainment	Socializing, Relaxing, and Leisure	Arts and Entertainment	Playing musical instruments	136	2	True	False	False	True	0.3218486569821834
video_on	action	20	meg	1	q-jDrD6H3zk	Pole vault	Participating_in_sports&Exercise&Recreation	Sports, Exercise, and Recreation	Participating in Sports, Exercise, or Recreation	Playing sports	106	1	True	True	False	False	0.612280105939135
video_on	action	20	meg	1	8T21GWu6-v4	Playing flauta	Arts&Entertainment	Socializing, Relaxing, and Leisure	Arts and Entertainment	Playing musical instruments	149	2	True	False	False	True	0.005353377549909
video_on	action	20	meg	1	Marq1QN31OU	Getting a piercing	Grooming	Personal Care	Grooming	Washing, dressing and grooming	214	4	True	False	False	True	0.2505120483692735
video_on	action	20	meg	1	BxgnRquV4Yw	Trimming branches or hedges	Lawn&Garden&Houseplants	Household Activities	Lawn, Garden, and Houseplants	Lawn, garden, and houseplant care	381	9	True	False	False	True	0.3007989012403413
video_on	action	20	meg	1	jWkZAFIxUMg	Playing racquetball	Participating_in_sports&Exercise&Recreation	Sports, Exercise, and Recreation	Participating in Sports, Exercise, or Recreation	Playing racquet sports	253	1	True	True	True	True	0.4441881561651826
video_on	action	20	meg	1	yqztdHr2ETI	Sumo	Participating_in_sports&Exercise&Recreation	Sports, Exercise, and Recreation	Participating in Sports, Exercise, or Recreation	Wrestling	375	1	True	True	True	True	0.1244205966359004
video_on	action	20	meg	1	b1SFctLNMUI	Building sandcastles	Arts&Entertainment	Socializing, Relaxing, and Leisure	Arts and Entertainment	Beach activities	286	2	True	False	False	True	0.3151806320529431
video_on	action	20	meg	1	zxTrOQ6vJUI	Preparing pasta	Food&Drink_prep.&Presentation&Clean-up	Eating and drinking Activities	Food & Drink Prep., Presentation, & Clean-up	Food and drink preparation	186	5	True	False	False	True	0.4983788025565445
video_on	action	20	meg	1	7rL_v-7mOhE	Longboarding	Participating_in_sports&Exercise&Recreation	Sports, Exercise, and Recreation	Participating in Sports, Exercise, or Recreation	Playing sports	331	1	True	True	True	True	0.4586541088065132
video_on	action	20	meg	1	0xa8D6gQLX4	Decorating the Christmas tree	Interior_maintenance&Repair&Decoration	Household Activities	Interior Maintenance, Repair, & Decoration	Interior arrangement, decoration, & repairs	302	7	True	False	False	True	0.975516161415726
video_on	action	20	meg	1	4avLmBUSkGI	Starting a campfire	Participating_in_sports&Exercise&Recreation	Sports, Exercise, and Recreation	Participating in Sports, Exercise, or Recreation	Playing sports	153	1	False	True	False	False	0.0
video_on	action	20	meg	1	FGVkSAG5NwU	Belly dance	Arts&Entertainment	Socializing, Relaxing, and Leisure	Arts and Entertainment	Dancing	247	2	True	False	False	True	0.0050955798942595
video_on	action	20	meg	1	mHaoTBugaIo	Playing ice hockey	Participating_in_sports&Exercise&Recreation	Sports, Exercise, and Recreation	Participating in Sports, Exercise, or Recreation	Playing hockey	347	1	True	True	True	True	1.0620634381193668
video_on	action	20	meg	1	pa6XzOo5U6s	Sailing	Participating_in_sports&Exercise&Recreation	Sports, Exercise, and Recreation	Participating in Sports, Exercise, or Recreation	Participating in water sports	240	1	True	True	False	False	0.4054638622328639
video_on	action	20	meg	1	dpptS-B8l64	Ping-pong	Participating_in_sports&Exercise&Recreation	Sports, Exercise, and Recreation	Participating in Sports, Exercise, or Recreation	Playing racquet sports	119	1	True	True	True	True	0.0050967873539775
video_on	action	20	meg	1	cCFC6veumo4	Scuba diving	Participating_in_sports&Exercise&Recreation	Sports, Exercise, and Recreation	Participating in Sports, Exercise, or Recreation	Participating in water sports	364	1	True	True	False	False	0.1500636193668469
video_on	action	20	meg	1	SCeSwkN07Lo	Swinging at the playground	Arts&Entertainment	Socializing, Relaxing, and Leisure	Arts and Entertainment	Park activities	378	2	True	False	False	True	0.5180215385043994
video_on	action	20	meg	1	P1pAw9QBJGI	Tumbling	Participating_in_sports&Exercise&Recreation	Sports, Exercise, and Recreation	Participating in Sports, Exercise, or Recreation	Doing gymnastics	258	1	True	True	True	True	0.5628197755431756
video_on	action	20	meg	1	VJ9qFaZ9yFA	Playing piano	Arts&Entertainment	Socializing, Relaxing, and Leisure	Arts and Entertainment	Playing musical instruments	197	2	True	False	False	True	0.3671926766401157
video_on	action	20	meg	1	_d8rk3NhBzY	Playing congas	Arts&Entertainment	Socializing, Relaxing, and Leisure	Arts and Entertainment	Playing musical instruments	345	2	True	False	False	True	0.694602700183168
video_on	action	20	meg	1	TZ8yMTIiV3g	Braiding hair	Grooming	Personal Care	Grooming	Washing, dressing and grooming oneself	285	4	True	False	False	True	0.00509527802933
video_on	action	20	meg	1	tn2ADBaUewk	Cricket	Participating_in_sports&Exercise&Recreation	Sports, Exercise, and Recreation	Participating in Sports, Exercise, or Recreation	Playing sports	82	1	True	True	True	True	0.558695616084151
video_on	action	20	meg	1	fNvWLLlkcf4	Shuffleboard	Relaxing&Leisure	Socializing, Relaxing, and Leisure	Relaxing and Leisure	Playing games	368	3	True	False	True	False	1.039696921594441
video_on	action	20	meg	1	eCF4ci23zwY	Cleaning shoes	Housework	Household Activities	Housework	Sewing, repairing, & maintaining textiles	134	6	True	False	False	True	0.931836657691747
video_on	action	20	meg	1	xaW_qUNUkTQ	Breakdancing	Arts&Entertainment	Socializing, Relaxing, and Leisure	Arts and Entertainment	Dancing	236	2	True	False	True	False	0.7112466511316597
video_on	action	20	meg	1	q-xjom73YXI	Swimming	Participating_in_sports&Exercise&Recreation	Sports, Exercise, and Recreation	Participating in Sports, Exercise, or Recreation	Participating in water sports	377	1	True	True	True	True	0.5974999057361856
video_on	action	20	meg	1	p0SZQZ4LOmM	Shot put	Participating_in_sports&Exercise&Recreation	Sports, Exercise, and Recreation	Participating in Sports, Exercise, or Recreation	Playing sports	169	1	False	True	False	False	0.0
video_on	action	20	meg	1	gCJbymLojrU	Horseback riding	Participating_in_sports&Exercise&Recreation	Sports, Exercise, and Recreation	Participating in Sports, Exercise, or Recreation	Participating in equestrian sports	175	1	True	True	False	False	0.9282286973902956
video_on	action	20	meg	1	g1q0TLJuFe8	Baton twirling	Participating_in_sports&Exercise&Recreation	Sports, Exercise, and Recreation	Participating in Sports, Exercise, or Recreation	Playing sports	277	1	True	True	True	True	0.432745439815335
video_on	action	20	meg	1	II91PIZWJW8	Cleaning windows	Housework	Household Activities	Housework	Interior cleaning	143	6	False	False	False	True	0.0
video_on	action	20	meg	1	HNYmIhICvJc	Grooming horse	Animals&Pets	Household Activities	Animals and Pets	Walking / exercising / playing with animals	95	8	True	False	False	True	0.0050961836241185
video_on	action	20	meg	1	svJQcs9l6fQ	Tai chi	Participating_in_sports&Exercise&Recreation	Sports, Exercise, and Recreation	Participating in Sports, Exercise, or Recreation	Participating in martial arts	263	1	True	True	True	True	0.4323521021287888
video_on	action	20	meg	1	DU3lx5xEzUA	Archery	Participating_in_sports&Exercise&Recreation	Sports, Exercise, and Recreation	Participating in Sports, Exercise, or Recreation	Playing sports	250	1	True	True	True	True	1.1891700816340744
video_on	action	20	meg	1	2EI7ppWNcu0	Wakeboarding	Participating_in_sports&Exercise&Recreation	Sports, Exercise, and Recreation	Participating in Sports, Exercise, or Recreation	Participating in water sports	385	1	True	True	False	False	0.406080282642506
video_on	action	20	meg	1	snWk7EG2jYc	Using the balance beam	Participating_in_sports&Exercise&Recreation	Sports, Exercise, and Recreation	Participating in Sports, Exercise, or Recreation	Doing gymnastics	180	1	False	True	False	False	0.0
video_on	action	20	meg	1	Shngj1GiuIo	Playing saxophone	Arts&Entertainment	Socializing, Relaxing, and Leisure	Arts and Entertainment	Playing musical instruments	109	2	True	False	True	False	0.0050678077386692
video_on	action	20	meg	1	PNc278W45ck	Playing violin	Arts&Entertainment	Socializing, Relaxing, and Leisure	Arts and Entertainment	Playing musical instruments	234	2	True	False	False	True	0.0051269744290038
video_on	action	20	meg	1	WcCy96bc_8g	Assembling bicycle	Vehicles	Household Activities	Vehicles	Vehicle repair and maintenance (by self)	273	11	True	False	True	False	0.5679953512735665
video_on	action	20	meg	1	VAZEagrSoDk	Beer pong	Relaxing&Leisure	Socializing, Relaxing, and Leisure	Relaxing and Leisure	Playing games	280	3	False	False	False	True	0.0
video_on	action	20	meg	1	D4P0ELCkN7k	Playing blackjack	Arts&Entertainment	Socializing, Relaxing, and Leisure	Arts and Entertainment	Attending gambling establishments	343	2	True	False	False	True	0.005096485489048
video_on	action	20	meg	1	Ql-ZNwE6WSs	Surfing	Participating_in_sports&Exercise&Recreation	Sports, Exercise, and Recreation	Participating in Sports, Exercise, or Recreation	Participating in water sports	376	1	True	True	True	True	0.847632200573571
video_on	action	20	meg	1	SD7TOc--zjc	Playing rubik cube	Relaxing&Leisure	Socializing, Relaxing, and Leisure	Relaxing and Leisure	Playing games	349	3	False	False	False	True	0.0
video_on	action	20	meg	1	DNOXdeSHXo8	Washing dishes	Food&Drink_prep.&Presentation&Clean-up	Eating and drinking Activities	Food & Drink Prep., Presentation, & Clean-up	Kitchen and food clean-up	213	5	True	False	False	True	0.0050967873539775
video_on	action	20	eeg	1	UpzW8iMIt_0	Playing badminton	Participating_in_sports&Exercise&Recreation	Sports, Exercise, and Recreation	Participating in Sports, Exercise, or Recreation	Playing racquet sports	268	1	True	True	True	True	0.8938078000064706
video_on	action	20	eeg	1	62VWugDz1MY	Fixing the roof	Exterior_maintenance&Repair&Decoration	Household Activities	Exterior Maintenance, Repair, & Decoration	Exterior repair, improvements, & decoration	311	12	True	False	False	True	0.2323211000039009
video_on	action	20	eeg	1	MjvEF4lMSB0	Plastering	Interior_maintenance&Repair&Decoration	Household Activities	Interior Maintenance, Repair, & Decoration	Interior arrangement, decoration, & repairs	340	7	True	False	False	True	0.1430684999941149
video_on	action	20	eeg	1	ENOOpghxFUs	Chopping wood	Interior_maintenance&Repair&Decoration	Household Activities	Interior Maintenance, Repair, & Decoration	Heating and cooling	110	7	True	False	False	True	0.0050728000060189
video_on	action	20	eeg	1	UVSvjodOzmY	Clean and jerk	Participating_in_sports&Exercise&Recreation	Sports, Exercise, and Recreation	Participating in Sports, Exercise, or Recreation	Weightlifting	84	1	True	True	True	True	0.0050729000067804
video_on	action	20	eeg	1	wEGNirq6k3g	Smoking a cigarette	Relaxing&Leisure	Socializing, Relaxing, and Leisure	Relaxing and Leisure	Tobacco and drug use	201	3	True	False	False	True	0.3718873000034364
video_on	action	20	eeg	1	XmW1GSl7xHo	Rope skipping	Participating_in_sports&Exercise&Recreation	Sports, Exercise, and Recreation	Participating in Sports, Exercise, or Recreation	Working out	361	1	True	True	True	True	0.0050942999951075
video_on	action	20	eeg	1	qnjDVlUx9jU	Playing pool	Relaxing&Leisure	Socializing, Relaxing, and Leisure	Relaxing and Leisure	Playing games	348	3	True	False	True	False	0.0050718999991659
video_on	action	20	eeg	1	5Q7_allrlo8	Kite flying	Relaxing&Leisure	Socializing, Relaxing, and Leisure	Relaxing and Leisure	Playing games	327	3	True	False	False	True	0.0050866000092355
video_on	action	20	eeg	1	CXUagaMLwfU	Playing violin	Arts&Entertainment	Socializing, Relaxing, and Leisure	Arts and Entertainment	Playing musical instruments	234	2	True	False	False	True	0.0050864999939221
video_on	action	20	eeg	1	_Wu1KA1mZd0	Painting	Interior_maintenance&Repair&Decoration	Household Activities	Interior Maintenance, Repair, & Decoration	Interior arrangement, decoration, & repairs	217	7	True	False	False	True	0.0050728999922284
video_on	action	20	eeg	1	p7DdrsDOcNY	Snatch	Participating_in_sports&Exercise&Recreation	Sports, Exercise, and Recreation	Participating in Sports, Exercise, or Recreation	Weightlifting	79	1	True	True	True	True	0.0050682000000961
video_on	action	20	eeg	1	b6jP6BTjrS8	Playing water polo	Participating_in_sports&Exercise&Recreation	Sports, Exercise, and Recreation	Participating in Sports, Exercise, or Recreation	Participating in water sports	130	1	True	True	True	True	0.0050751999951899
video_on	action	20	eeg	1	yB8hLodbPuw	Cutting the grass	Lawn&Garden&Houseplants	Household Activities	Lawn, Garden, and Houseplants	Lawn, garden, and houseplant care	301	9	True	False	False	True	0.0050706000038189
video_on	action	20	eeg	1	B0StVh69HXI	Beach soccer	Participating_in_sports&Exercise&Recreation	Sports, Exercise, and Recreation	Participating in Sports, Exercise, or Recreation	Playing soccer	278	1	True	True	True	True	0.0051129999919794
video_on	action	20	eeg	1	LqSbxFebliE	Making a lemonade	Food&Drink_prep.&Presentation&Clean-up	Eating and drinking Activities	Food & Drink Prep., Presentation, & Clean-up	Food and drink preparation	333	5	True	False	False	True	0.0050784999912139
video_on	action	20	eeg	1	jIw-QdZF5UU	Shoveling snow	Exterior_maintenance&Repair&Decoration	Household Activities	Exterior Maintenance, Repair, & Decoration	Exterior cleaning	183	12	True	False	False	True	0.0050763000035658
video_on	action	20	eeg	1	WpOWGK8sCx8	Skiing	Participating_in_sports&Exercise&Recreation	Sports, Exercise, and Recreation	Participating in Sports, Exercise, or Recreation	Skiing, ice skating, snowboarding	369	1	True	True	True	True	0.0050741000013658
video_on	action	20	eeg	1	96Vr71BADVM	Tumbling	Participating_in_sports&Exercise&Recreation	Sports, Exercise, and Recreation	Participating in Sports, Exercise, or Recreation	Doing gymnastics	258	1	True	True	True	True	0.0050704999885056
video_on	action	20	eeg	1	27nWWA6KcdE	Riding bumper cars	Relaxing&Leisure	Socializing, Relaxing, and Leisure	Relaxing and Leisure	Playing games	356	3	True	False	False	True	0.005081399998744
video_on	action	20	eeg	1	bMhiL2CnFEs	Bungee jumping	Participating_in_sports&Exercise&Recreation	Sports, Exercise, and Recreation	Participating in Sports, Exercise, or Recreation	Playing sports	154	1	True	True	False	False	0.0050787000072887
video_on	action	20	eeg	1	hCAy5_x5it0	Using the balance beam	Participating_in_sports&Exercise&Recreation	Sports, Exercise, and Recreation	Participating in Sports, Exercise, or Recreation	Doing gymnastics	180	1	True	True	True	True	0.0050730999937513
video_on	action	20	eeg	1	8hodijmBe4I	Table soccer	Relaxing&Leisure	Socializing, Relaxing, and Leisure	Relaxing and Leisure	Playing games	379	3	True	False	True	False	0.0050718999991659
video_on	action	20	eeg	1	oQKON271zS4	Brushing teeth	Grooming	Personal Care	Grooming	Washing, dressing and grooming oneself	148	4	True	False	False	True	0.0050752999959513
video_on	action	20	eeg	1	B27F8ibZWTA	Capoeira	Participating_in_sports&Exercise&Recreation	Sports, Exercise, and Recreation	Participating in Sports, Exercise, or Recreation	Participating in martial arts	294	1	True	True	True	True	0.0050839999894378
video_on	action	20	eeg	1	MfKVo1shPGo	Painting fence	Exterior_maintenance&Repair&Decoration	Household Activities	Exterior Maintenance, Repair, & Decoration	Painting fence	336	12	True	False	False	True	0.0050811999972211
video_on	action	20	eeg	1	0uVePfMvDbs	Belly dance	Arts&Entertainment	Socializing, Relaxing, and Leisure	Arts and Entertainment	Dancing	247	2	True	False	True	False	0.0050731999945128
video_on	action	20	eeg	1	mhfvd10UsV0	Grooming horse	Animals&Pets	Household Activities	Animals and Pets	Walking / exercising / playing with animals	95	8	True	False	False	True	0.6426744000054896
video_on	action	20	eeg	1	FiGw4r8sEwg	Playing blackjack	Arts&Entertainment	Socializing, Relaxing, and Leisure	Arts and Entertainment	Attending gambling establishments	343	2	True	False	False	True	0.2185081000061473
video_on	action	20	eeg	1	h_SzdOBm1hU	Playing bagpipes	Arts&Entertainment	Socializing, Relaxing, and Leisure	Arts and Entertainment	Playing musical instruments	136	2	True	False	False	True	0.0050974000041605
video_on	action	20	eeg	1	IMKcCOyF--A	Cheerleading	Arts&Entertainment	Socializing, Relaxing, and Leisure	Arts and Entertainment	Dancing	140	2	True	False	True	False	0.0051188000070396
video_on	action	20	eeg	1	yVrYmD4dpDk	Grooming dog	Animals&Pets	Household Activities	Animals and Pets	Care for animals and pets (not veterinary care)	317	8	True	False	False	True	0.0050798000011127
video_on	action	20	eeg	1	nsYE7OOJXlM	Putting on shoes	Grooming	Personal Care	Grooming	Washing, dressing and grooming oneself	352	4	True	False	False	True	0.0051207000069553
video_on	action	20	eeg	1	dddHc_wQDsk	Assembling bicycle	Vehicles	Household Activities	Vehicles	Vehicle repair and maintenance (by self)	273	11	True	False	False	True	0.005087800003821
video_on	action	20	eeg	1	aXR1O6pI0tQ	Preparing salad	Food&Drink_prep.&Presentation&Clean-up	Eating and drinking Activities	Food & Drink Prep., Presentation, & Clean-up	Food and drink preparation	96	5	True	False	False	True	0.0050869999977294
video_on	action	20	eeg	1	noiAV8diGH8	Mooping floor	Housework	Household Activities	Housework	Interior cleaning	335	6	True	False	False	True	0.0050703000015346
video_on	action	20	eeg	1	2mEIokp5iTw	Cleaning sink	Interior_maintenance&Repair&Decoration	Household Activities	Interior Maintenance, Repair, & Decoration	Interior arrangement, decoration, & repairs	297	7	True	False	False	True	0.005076999994344
video_on	action	20	eeg	1	Noe7ZkixAbo	Doing motocross	Participating_in_sports&Exercise&Recreation	Sports, Exercise, and Recreation	Participating in Sports, Exercise, or Recreation	Playing sports	243	1	True	True	True	True	0.0051116999966325
video_on	action	20	eeg	1	T-ooo54vCj8	Making a cake	Food&Drink_prep.&Presentation&Clean-up	Eating and drinking Activities	Food & Drink Prep., Presentation, & Clean-up	Food and drink preparation	332	5	True	False	False	True	0.005076999994344
video_on	action	20	eeg	1	GYc77us-vVY	Ballet	Arts&Entertainment	Socializing, Relaxing, and Leisure	Arts and Entertainment	Attending arts and entertainment	229	2	True	False	True	False	0.0050758999859681
video_on	action	20	eeg	1	VnyKvr_pCwM	Doing fencing	Participating_in_sports&Exercise&Recreation	Sports, Exercise, and Recreation	Participating in Sports, Exercise, or Recreation	Fencing	309	1	True	True	True	True	0.0050782000034814
video_on	action	20	eeg	1	OUQ78AApr0Q	Putting in contact lenses	Grooming	Personal Care	Grooming	Washing, dressing and grooming oneself	351	4	True	False	False	True	0.0050745000044116
video_on	action	20	eeg	1	suzkAv6xPKQ	Fixing bicycle	Vehicles	Household Activities	Vehicles	Vehicle repair and maintenance (by self)	171	11	True	False	False	True	0.0050754999974742
video_on	action	20	eeg	1	9oMCs8V-guI	High jump	Participating_in_sports&Exercise&Recreation	Sports, Exercise, and Recreation	Participating in Sports, Exercise, or Recreation	Playing sports	195	1	True	True	True	True	0.0050809000094886
video_on	action	20	eeg	1	kdHBIymbhnI	Futsal	Participating_in_sports&Exercise&Recreation	Sports, Exercise, and Recreation	Participating in Sports, Exercise, or Recreation	Playing soccer	315	1	False	True	False	False	0.0
video_on	action	20	eeg	1	fURuY_vle_Q	Brushing hair	Grooming	Personal Care	Grooming	Washing, dressing and grooming oneself	125	4	True	False	False	True	0.0050852999993367
video_on	action	20	eeg	1	FPSxCBWcc9M	Welding	Appliances&Tools&Toys	Household Activities	Appliances, Tools, and Toys	Appliance, tool, and toy set-up, repair, & maintenance (by self)	388	10	True	False	False	True	0.0050790999957825
video_on	action	20	eeg	1	BdN25qarPkU	Swinging at the playground	Arts&Entertainment	Socializing, Relaxing, and Leisure	Arts and Entertainment	Park activities	378	2	True	False	False	True	0.0050781999889295
video_on	action	20	eeg	1	kvzgR2OvpeI	Running a marathon	Participating_in_sports&Exercise&Recreation	Sports, Exercise, and Recreation	Participating in Sports, Exercise, or Recreation	Running	362	1	True	True	True	True	0.0050840999901993
video_on	action	20	eeg	1	gvmqQw5I3oU	Polishing shoes	Housework	Household Activities	Housework	Sewing, repairing, & maintaining textiles	227	6	True	False	False	True	0.7976305999909528
video_on	action	20	eeg	1	J7FLifJQ-N4	Doing kickboxing	Participating_in_sports&Exercise&Recreation	Sports, Exercise, and Recreation	Participating in Sports, Exercise, or Recreation	Participating in martial arts	70	1	True	True	True	True	0.0050706000038189
video_on	action	20	eeg	1	zctvCZclI6E	Canoeing	Participating_in_sports&Exercise&Recreation	Sports, Exercise, and Recreation	Participating in Sports, Exercise, or Recreation	Boating	292	1	True	True	True	True	0.8167222000047332
video_on	action	20	eeg	1	z6HtE1VLvis	Playing harmonica	Arts&Entertainment	Socializing, Relaxing, and Leisure	Arts and Entertainment	Playing musical instruments	100	2	True	False	False	True	0.7345575000072131
video_on	action	20	eeg	1	wVahCLOq4s0	Carving jack-o-lanterns	Interior_maintenance&Repair&Decoration	Household Activities	Interior Maintenance, Repair, & Decoration	Interior arrangement, decoration, & repairs	295	7	True	False	False	True	0.5050369999953546
video_on	action	20	eeg	1	mCe9rPgGCYA	Dodgeball	Participating_in_sports&Exercise&Recreation	Sports, Exercise, and Recreation	Participating in Sports, Exercise, or Recreation	Playing sports	161	1	True	True	True	True	0.5710782000096515
video_on	action	20	eeg	1	KEOUSea8A6Y	Rollerblading	Participating_in_sports&Exercise&Recreation	Sports, Exercise, and Recreation	Participating in Sports, Exercise, or Recreation	Playing sports	359	1	True	True	True	True	0.6036623999971198
video_on	action	20	eeg	1	nuT7cwpQq3w	Doing nails	Grooming	Personal Care	Grooming	Washing, dressing and grooming oneself	167	4	True	False	False	True	0.8632032000023173
video_on	action	20	eeg	1	kiffZesMh-I	Playing rubik cube	Relaxing&Leisure	Socializing, Relaxing, and Leisure	Relaxing and Leisure	Playing games	349	3	True	False	False	True	0.7532444999960717
video_on	action	20	eeg	1	fQbIdA5PS1o	Longboarding	Participating_in_sports&Exercise&Recreation	Sports, Exercise, and Recreation	Participating in Sports, Exercise, or Recreation	Playing sports	331	1	True	True	True	True	0.4658329999947455
video_on	action	20	eeg	1	sqO30W-fUoo	Arm wrestling	Participating_in_sports&Exercise&Recreation	Sports, Exercise, and Recreation	Participating in Sports, Exercise, or Recreation	Wrestling	271	1	True	True	False	False	0.5649415999941994
video_on	action	20	eeg	1	VEsXeqMEYKA	Javelin throw	Participating_in_sports&Exercise&Recreation	Sports, Exercise, and Recreation	Participating in Sports, Exercise, or Recreation	Playing sports	116	1	True	True	True	True	0.7527113999967696
video_on	action	20	eeg	1	GlwUVXWf-o0	Getting a haircut	Grooming	Personal Care	Grooming	Washing, dressing and grooming	208	4	True	False	False	True	0.9722440000041388
video_on	action	20	eeg	1	vza8pdyoJO8	Mixing drinks	Food&Drink_prep.&Presentation&Clean-up	Eating and drinking Activities	Food & Drink Prep., Presentation, & Clean-up	Food and drink preparation	244	5	True	False	False	True	0.900156200004858
video_on	action	20	eeg	1	vRohLfzcBZM	Blow-drying hair	Grooming	Personal Care	Grooming	Washing, dressing and grooming oneself	281	4	True	False	False	True	0.8199389000074007
video_on	action	20	eeg	1	hW-DQTMXSJE	Playing flauta	Arts&Entertainment	Socializing, Relaxing, and Leisure	Arts and Entertainment	Playing musical instruments	149	2	True	False	False	True	0.7471395000029588
video_on	action	20	eeg	1	Ip3G983bUWk	Sailing	Participating_in_sports&Exercise&Recreation	Sports, Exercise, and Recreation	Participating in Sports, Exercise, or Recreation	Participating in water sports	240	1	True	True	True	True	0.0051280000043334
video_on	action	20	eeg	1	HDxjRnOedjM	Bathing dog	Animals&Pets	Household Activities	Animals and Pets	Care for animals and pets (not veterinary care)	90	8	True	False	False	True	0.8460435000015423
video_on	action	20	eeg	1	CSmOOcELgxU	Walking the dog	Animals&Pets	Household Activities	Animals and Pets	Walking / exercising / playing with animals	221	8	True	False	False	True	0.978480200006743
video_on	action	20	eeg	1	O1DdXPXo5F4	Having an ice cream	Food&Drink_prep.&Presentation&Clean-up	Eating and drinking Activities	Food & Drink Prep., Presentation, & Clean-up	Eating and Drinking	320	5	True	False	True	False	0.7148921000043629
video_on	action	20	eeg	1	2pTtY0RLIfo	Springboard diving	Participating_in_sports&Exercise&Recreation	Sports, Exercise, and Recreation	Participating in Sports, Exercise, or Recreation	Participating in water sports	193	1	True	True	True	True	0.6198030000086874
video_on	action	20	eeg	1	oaKR2gP8kX4	Rock climbing	Participating_in_sports&Exercise&Recreation	Sports, Exercise, and Recreation	Participating in Sports, Exercise, or Recreation	Climbing, spelunking, caving	188	1	True	True	True	True	0.901222400003462
video_on	action	20	eeg	1	1psjobWHtx4	Using the monkey bar	Arts&Entertainment	Socializing, Relaxing, and Leisure	Arts and Entertainment	Park activities	383	2	True	False	True	False	0.9787839999917196
video_on	action	20	eeg	1	e9hBCJGZ5QE	Snowboarding	Participating_in_sports&Exercise&Recreation	Sports, Exercise, and Recreation	Participating in Sports, Exercise, or Recreation	Skiing, ice skating, snowboarding	373	1	True	True	True	True	0.8492734000028577
video_on	action	20	eeg	1	9m6UznHbvtY	Hammer throw	Participating_in_sports&Exercise&Recreation	Sports, Exercise, and Recreation	Participating in Sports, Exercise, or Recreation	Playing sports	224	1	True	True	True	True	0.8865266000066185
video_on	action	20	eeg	1	1Ou1XmMd1Og	Kayaking	Participating_in_sports&Exercise&Recreation	Sports, Exercise, and Recreation	Participating in Sports, Exercise, or Recreation	Participating in water sports	254	1	True	True	True	True	1.1716525000083493
video_on	action	20	eeg	1	SwkNlnu7-hc	Rock-paper-scissors	Relaxing&Leisure	Socializing, Relaxing, and Leisure	Relaxing and Leisure	Playing games	358	3	True	False	False	True	0.9068247999966844
video_on	action	20	eeg	1	jGbV3Pld1WY	Paintball	Participating_in_sports&Exercise&Recreation	Sports, Exercise, and Recreation	Participating in Sports, Exercise, or Recreation	Playing sports	141	1	True	True	False	False	0.9768807999935234
video_on	action	20	eeg	1	3WYyowAvb5U	Swimming	Participating_in_sports&Exercise&Recreation	Sports, Exercise, and Recreation	Participating in Sports, Exercise, or Recreation	Participating in water sports	377	1	True	True	True	True	0.8847570999932941
video_on	action	20	eeg	1	qvc75esPmzA	Baton twirling	Participating_in_sports&Exercise&Recreation	Sports, Exercise, and Recreation	Participating in Sports, Exercise, or Recreation	Playing sports	277	1	True	True	True	True	0.8334176999924239
video_on	action	20	eeg	1	E_jsWfYfTDY	Camel ride	Participating_in_sports&Exercise&Recreation	Sports, Exercise, and Recreation	Participating in Sports, Exercise, or Recreation	Playing sports	291	1	True	True	False	False	1.0038109999877634
video_on	action	20	eeg	1	dp7_XVQm1Vk	Mowing the lawn	Lawn&Garden&Houseplants	Household Activities	Lawn, Garden, and Houseplants	Lawn, garden, and houseplant care	218	9	True	False	False	True	0.9443608000001404
video_on	action	20	eeg	1	ydCHpml7aMM	Vacuuming floor	Housework	Household Activities	Housework	Interior cleaning	160	6	False	False	False	True	0.0
video_on	action	20	eeg	1	tY8a9Ap1DXU	Hopscotch	Relaxing&Leisure	Socializing, Relaxing, and Leisure	Relaxing and Leisure	Playing games	241	3	True	False	False	True	0.0050747999921441
video_on	action	20	eeg	1	GW9gT3fS5sA	Triple jump	Participating_in_sports&Exercise&Recreation	Sports, Exercise, and Recreation	Participating in Sports, Exercise, or Recreation	Playing sports	155	1	True	True	True	True	0.7774383000069065
video_on	action	20	eeg	1	4zG8hK14p68	Playing lacrosse	Participating_in_sports&Exercise&Recreation	Sports, Exercise, and Recreation	Participating in Sports, Exercise, or Recreation	Playing racquet sports	209	1	True	True	False	False	0.905512199999066
video_on	action	20	eeg	1	PxvcDaAPyJg	Ping-pong	Participating_in_sports&Exercise&Recreation	Sports, Exercise, and Recreation	Participating in Sports, Exercise, or Recreation	Playing racquet sports	119	1	True	True	True	True	0.8185585000028368
video_on	action	20	eeg	1	bZYT1OPUCPs	Bullfighting	Participating_in_sports&Exercise&Recreation	Sports, Exercise, and Recreation	Participating in Sports, Exercise, or Recreation	Participating in rodeo competitions	288	1	True	True	True	True	0.9800511999928858
video_on	action	20	eeg	1	TCK2fFIvmnI	Trimming branches or hedges	Lawn&Garden&Houseplants	Household Activities	Lawn, Garden, and Houseplants	Lawn, garden, and houseplant care	381	9	True	False	False	True	0.8304800000041723
video_on	action	20	eeg	1	S7UXJIM8QpU	Baking cookies	Food&Drink_prep.&Presentation&Clean-up	Eating and drinking Activities	Food & Drink Prep., Presentation, & Clean-up	Food and drink preparation	276	5	True	False	False	True	0.8798074999940582
video_on	action	20	eeg	1	REEoNTjPKh0	Doing step aerobics	Participating_in_sports&Exercise&Recreation	Sports, Exercise, and Recreation	Participating in Sports, Exercise, or Recreation	Doing aerobics	230	1	False	True	False	False	0.0
video_on	action	20	meg	2	aprrS7cx2sE	Vacuuming floor	Housework	Household Activities	Housework	Interior cleaning	160	6	True	False	False	True	0.4563798138406127
video_on	action	20	meg	2	XKsn-YUkuG0	Doing crunches	Participating_in_sports&Exercise&Recreation	Sports, Exercise, and Recreation	Participating in Sports, Exercise, or Recreation	Working out	305	1	True	True	False	False	0.4164531684946269
video_on	action	20	meg	2	UXH5IG-EsIQ	Chopping wood	Interior_maintenance&Repair&Decoration	Household Activities	Interior Maintenance, Repair, & Decoration	Heating and cooling	110	7	True	False	False	True	0.6245393828721717
video_on	action	20	meg	2	uNoXf95825s	Raking leaves	Lawn&Garden&Houseplants	Household Activities	Lawn, Garden, and Houseplants	Lawn, garden, and houseplant care	354	9	True	False	False	True	0.6896209256956354
video_on	action	20	meg	2	G6Bn4Ke8dL8	Hand car wash	Vehicles	Household Activities	Vehicles	Vehicle repair and maintenance (by self)	318	11	True	False	False	True	0.4818728066748008
video_on	action	20	meg	2	bw6aqHCo8Q0	Mixing drinks	Food&Drink_prep.&Presentation&Clean-up	Eating and drinking Activities	Food & Drink Prep., Presentation, & Clean-up	Food and drink preparation	244	5	True	False	False	True	0.4819509912049398
video_on	action	20	meg	2	p5-Zhxs3Acw	Knitting	Housework	Household Activities	Housework	Sewing, repairing, & maintaining textiles	329	6	True	False	False	True	0.5061664666282013
video_on	action	20	meg	2	CEtgG9DW2h4	Using the pommel horse	Participating_in_sports&Exercise&Recreation	Sports, Exercise, and Recreation	Participating in Sports, Exercise, or Recreation	Doing gymnastics	114	1	True	True	False	False	0.5213662673486397
video_on	action	20	meg	2	WennXcKYfHk	Snowboarding	Participating_in_sports&Exercise&Recreation	Sports, Exercise, and Recreation	Participating in Sports, Exercise, or Recreation	Skiing, ice skating, snowboarding	373	1	True	True	False	False	0.4357898073503747
video_on	action	20	meg	2	PmrhGPR_C1A	Canoeing	Participating_in_sports&Exercise&Recreation	Sports, Exercise, and Recreation	Participating in Sports, Exercise, or Recreation	Boating	292	1	True	True	True	True	0.5137558015994728
video_on	action	20	meg	2	2fqHTJQmQqs	Polishing shoes	Housework	Household Activities	Housework	Sewing, repairing, & maintaining textiles	227	6	False	False	False	True	0.0
video_on	action	20	meg	2	PzTU1J0-IKM	Ballet	Arts&Entertainment	Socializing, Relaxing, and Leisure	Arts and Entertainment	Attending arts and entertainment	229	2	True	False	False	True	0.2842877735383808
video_on	action	20	meg	2	FNxWvUTk84Q	Grooming dog	Animals&Pets	Household Activities	Animals and Pets	Care for animals and pets (not veterinary care)	317	8	True	False	False	True	0.4744401427451521
video_on	action	20	meg	2	rql_F8H3h9E	Skateboarding	Participating_in_sports&Exercise&Recreation	Sports, Exercise, and Recreation	Participating in Sports, Exercise, or Recreation	Playing sports	176	1	True	True	False	False	0.8098038593307137
video_on	action	20	meg	2	VQtZAlB3h8E	Using the monkey bar	Arts&Entertainment	Socializing, Relaxing, and Leisure	Arts and Entertainment	Park activities	383	2	True	False	True	False	0.6739900532411411
video_on	action	20	meg	2	RSSi1Sy-vug	Smoking a cigarette	Relaxing&Leisure	Socializing, Relaxing, and Leisure	Relaxing and Leisure	Tobacco and drug use	201	3	True	False	False	True	0.8261703909374774
video_on	action	20	meg	2	iVkCl6xLXUk	Triple jump	Participating_in_sports&Exercise&Recreation	Sports, Exercise, and Recreation	Participating in Sports, Exercise, or Recreation	Playing sports	155	1	False	True	False	False	0.0
video_on	action	20	meg	2	tSjO53Zyymg	Rollerblading	Participating_in_sports&Exercise&Recreation	Sports, Exercise, and Recreation	Participating in Sports, Exercise, or Recreation	Playing sports	359	1	True	True	True	True	0.0050907499389722
video_on	action	20	meg	2	iz3FeeZyt_k	Making a sandwich	Food&Drink_prep.&Presentation&Clean-up	Eating and drinking Activities	Food & Drink Prep., Presentation, & Clean-up	Food and drink preparation	129	5	True	False	False	True	0.0053726972546428
video_on	action	20	meg	2	rGiGhTKBJkc	Playing badminton	Participating_in_sports&Exercise&Recreation	Sports, Exercise, and Recreation	Participating in Sports, Exercise, or Recreation	Playing racquet sports	268	1	True	True	False	False	0.0050958816427737
video_on	action	20	meg	2	BuTMUy84nxY	Windsurfing	Participating_in_sports&Exercise&Recreation	Sports, Exercise, and Recreation	Participating in Sports, Exercise, or Recreation	Participating in water sports	237	1	True	True	True	True	0.4656692853895947
video_on	action	20	meg	2	82-dMJwlGlI	Doing karate	Participating_in_sports&Exercise&Recreation	Sports, Exercise, and Recreation	Participating in Sports, Exercise, or Recreation	Participating in martial arts	99	1	True	True	True	True	0.9558242205530404
video_on	action	20	meg	2	5FkGLUcYDug	Spread mulch	Lawn&Garden&Houseplants	Household Activities	Lawn, Garden, and Houseplants	Lawn, garden, and houseplant care	374	9	False	False	False	True	0.0
video_on	action	20	meg	2	Nk90JgwnamM	Beach soccer	Participating_in_sports&Exercise&Recreation	Sports, Exercise, and Recreation	Participating in Sports, Exercise, or Recreation	Playing soccer	278	1	True	True	False	False	0.005097089218907
video_on	action	20	meg	2	efFh_IQfQW4	Brushing teeth	Grooming	Personal Care	Grooming	Washing, dressing and grooming oneself	148	4	True	False	False	True	0.555491256993264
video_on	action	20	meg	2	zHi5zdYZ7UE	Snatch	Participating_in_sports&Exercise&Recreation	Sports, Exercise, and Recreation	Participating in Sports, Exercise, or Recreation	Weightlifting	79	1	True	True	False	False	0.8858511626021937
video_on	action	20	meg	2	VONrGSxGhSo	Using the rowing machine	Participating_in_sports&Exercise&Recreation	Sports, Exercise, and Recreation	Participating in Sports, Exercise, or Recreation	Using cardiovascular equipment	384	1	False	True	False	False	0.0
video_on	action	20	meg	2	38jA-InoF74	High jump	Participating_in_sports&Exercise&Recreation	Sports, Exercise, and Recreation	Participating in Sports, Exercise, or Recreation	Playing sports	195	1	True	True	False	False	0.0051112772198393
video_on	action	20	meg	2	dccpBfDT9TU	Cleaning sink	Interior_maintenance&Repair&Decoration	Household Activities	Interior Maintenance, Repair, & Decoration	Interior arrangement, decoration, & repairs	297	7	False	False	False	True	0.0
video_on	action	20	meg	2	_uO2VBrJrEY	Doing motocross	Participating_in_sports&Exercise&Recreation	Sports, Exercise, and Recreation	Participating in Sports, Exercise, or Recreation	Playing sports	243	1	True	True	False	False	0.0050992023898288
video_on	action	20	meg	2	66vqGRMctaI	Playing drums	Arts&Entertainment	Socializing, Relaxing, and Leisure	Arts and Entertainment	Playing musical instruments	346	2	False	False	False	True	0.0
video_on	action	20	meg	2	gRxna09qpD8	Getting a haircut	Grooming	Personal Care	Grooming	Washing, dressing and grooming	208	4	True	False	False	True	0.0050952779129147
video_on	action	20	meg	2	pRpIiq93i-Y	Carving jack-o-lanterns	Interior_maintenance&Repair&Decoration	Household Activities	Interior Maintenance, Repair, & Decoration	Interior arrangement, decoration, & repairs	295	7	True	False	False	True	0.4147657104767859
video_on	action	20	meg	2	R8rOoXMdSD4	Elliptical trainer	Participating_in_sports&Exercise&Recreation	Sports, Exercise, and Recreation	Participating in Sports, Exercise, or Recreation	Using cardiovascular equipment	308	1	True	True	True	True	0.7876531805377454
video_on	action	20	meg	2	maPafobwcVw	Rock-paper-scissors	Relaxing&Leisure	Socializing, Relaxing, and Leisure	Relaxing and Leisure	Playing games	358	3	True	False	False	True	0.3975448844721541
video_on	action	20	meg	2	Cro7Z0mx_W0	Plastering	Interior_maintenance&Repair&Decoration	Household Activities	Interior Maintenance, Repair, & Decoration	Interior arrangement, decoration, & repairs	340	7	True	False	False	True	0.7573519889265299
video_on	action	20	meg	2	Skj5sbb8Dtw	Camel ride	Participating_in_sports&Exercise&Recreation	Sports, Exercise, and Recreation	Participating in Sports, Exercise, or Recreation	Playing sports	291	1	True	True	False	False	0.5493542228359729
video_on	action	20	meg	2	sajc71FVn-M	Croquet	Participating_in_sports&Exercise&Recreation	Sports, Exercise, and Recreation	Participating in Sports, Exercise, or Recreation	Playing sports	299	1	True	True	False	False	0.0050937685882672
video_on	action	20	meg	2	HO8yft1BbDQ	Hula hoop	Relaxing&Leisure	Socializing, Relaxing, and Leisure	Relaxing and Leisure	Playing games	322	3	True	False	False	True	0.4295102900359779
video_on	action	20	meg	2	WoSTF_ZF6kI	Throwing darts	Relaxing&Leisure	Socializing, Relaxing, and Leisure	Relaxing and Leisure	Playing games	380	3	True	False	True	False	0.6618832212407142
video_on	action	20	meg	2	jIk3l2iP68c	Snow tubing	Participating_in_sports&Exercise&Recreation	Sports, Exercise, and Recreation	Participating in Sports, Exercise, or Recreation	Skiing, ice skating, snowboarding	372	1	True	True	True	True	0.4719792916439473
video_on	action	20	meg	2	qc_Bks0NoGc	Shaving	Grooming	Personal Care	Grooming	Washing, dressing and grooming oneself	190	4	True	False	False	True	0.4481882466934621
video_on	action	20	meg	2	jlgbm4S0eNI	Blow-drying hair	Grooming	Personal Care	Grooming	Washing, dressing and grooming oneself	281	4	True	False	False	True	0.573033575550653
video_on	action	20	meg	2	ZVlL8AID5Lg	Laying tile	Interior_maintenance&Repair&Decoration	Household Activities	Interior Maintenance, Repair, & Decoration	Interior arrangement, decoration, & repairs	330	7	True	False	False	True	0.758511776686646
video_on	action	20	meg	2	-BFMh9klcOs	Futsal	Participating_in_sports&Exercise&Recreation	Sports, Exercise, and Recreation	Participating in Sports, Exercise, or Recreation	Playing soccer	315	1	True	True	False	False	2.27040805388242
video_on	action	20	meg	2	-woJuvfLOGw	Skiing	Participating_in_sports&Exercise&Recreation	Sports, Exercise, and Recreation	Participating in Sports, Exercise, or Recreation	Skiing, ice skating, snowboarding	369	1	True	True	True	True	0.5986916917609051
video_on	action	20	meg	2	UJwELSy0CDU	Clean and jerk	Participating_in_sports&Exercise&Recreation	Sports, Exercise, and Recreation	Participating in Sports, Exercise, or Recreation	Weightlifting	84	1	False	True	False	False	0.0
video_on	action	20	meg	2	oAtoAW6q4Fs	Cheerleading	Arts&Entertainment	Socializing, Relaxing, and Leisure	Arts and Entertainment	Dancing	140	2	True	False	True	False	0.005097692948766
video_on	action	20	meg	2	SYZxlA9OC54	Playing accordion	Arts&Entertainment	Socializing, Relaxing, and Leisure	Arts and Entertainment	Playing musical instruments	267	2	True	False	False	True	0.4472509376937523
video_on	action	20	meg	2	OaiozkhI3D4	Brushing hair	Grooming	Personal Care	Grooming	Washing, dressing and grooming oneself	125	4	True	False	True	False	1.3375658644363284
video_on	action	20	meg	2	NN4vU_WBbAU	Ice fishing	Participating_in_sports&Exercise&Recreation	Sports, Exercise, and Recreation	Participating in Sports, Exercise, or Recreation	Fishing	324	1	False	True	False	False	0.0
video_on	action	20	meg	2	3wMEYyIqeD4	Putting on shoes	Grooming	Personal Care	Grooming	Washing, dressing and grooming oneself	352	4	True	False	True	False	0.005096485489048
video_on	action	20	meg	2	9T4Dh8njlqI	Washing hands	Grooming	Personal Care	Grooming	Washing, dressing and grooming oneself	173	4	False	False	False	True	0.0
video_on	action	20	meg	2	uie27NWYkhc	BMX	Participating_in_sports&Exercise&Recreation	Sports, Exercise, and Recreation	Participating in Sports, Exercise, or Recreation	Biking	274	1	True	True	False	False	0.0051580670988187
video_on	action	20	meg	2	W2rJixcY30s	Riding bumper cars	Relaxing&Leisure	Socializing, Relaxing, and Leisure	Relaxing and Leisure	Playing games	356	3	True	False	False	True	1.704234191449359
video_on	action	20	meg	2	7CSsmD1wZd4	Dodgeball	Participating_in_sports&Exercise&Recreation	Sports, Exercise, and Recreation	Participating in Sports, Exercise, or Recreation	Playing sports	161	1	True	True	True	True	0.5111008475068957
video_on	action	20	meg	2	cU6kNYlAYa0	Hurling	Participating_in_sports&Exercise&Recreation	Sports, Exercise, and Recreation	Participating in Sports, Exercise, or Recreation	Playing sports	323	1	True	True	False	False	0.8565446353750303
video_on	action	20	meg	2	wSVAGX0Elqo	Waxing skis	Appliances&Tools&Toys	Household Activities	Appliances, Tools, and Toys	Appliance, tool, and toy set-up, repair, & maintenance (by self)	387	10	True	False	False	True	0.4347335612401366
video_on	action	20	meg	2	FBxRxD9vboU	Playing harmonica	Arts&Entertainment	Socializing, Relaxing, and Leisure	Arts and Entertainment	Playing musical instruments	100	2	True	False	False	True	0.8488792290445417
video_on	action	20	meg	2	_mmZKbrFT-0	Zumba	Participating_in_sports&Exercise&Recreation	Sports, Exercise, and Recreation	Participating in Sports, Exercise, or Recreation	Doing aerobics	69	1	True	True	False	False	0.490985985728912
video_on	action	20	meg	2	qumX_jMdeCo	Hand washing clothes	Housework	Household Activities	Housework	Laundry	232	6	True	False	False	True	0.7072003743378446
video_on	action	20	meg	2	mouMMOraPyw	Kayaking	Participating_in_sports&Exercise&Recreation	Sports, Exercise, and Recreation	Participating in Sports, Exercise, or Recreation	Participating in water sports	254	1	True	True	False	False	0.9453320956090464
video_on	action	20	meg	2	HyanDWD1H-k	Fixing the roof	Exterior_maintenance&Repair&Decoration	Household Activities	Exterior Maintenance, Repair, & Decoration	Exterior repair, improvements, & decoration	311	12	False	False	False	True	0.0
video_on	action	20	meg	2	JN3WLrxQQrs	Arm wrestling	Participating_in_sports&Exercise&Recreation	Sports, Exercise, and Recreation	Participating in Sports, Exercise, or Recreation	Wrestling	271	1	False	True	False	False	0.0
video_on	action	20	meg	2	HkVyH6anXUY	Rock climbing	Participating_in_sports&Exercise&Recreation	Sports, Exercise, and Recreation	Participating in Sports, Exercise, or Recreation	Climbing, spelunking, caving	188	1	True	True	True	True	0.3615341077093035
video_on	action	20	meg	2	coEtxsIC7n8	Tug of war	Relaxing&Leisure	Socializing, Relaxing, and Leisure	Relaxing and Leisure	Playing games	382	3	False	False	False	True	0.0
video_on	action	20	meg	2	sOBIJdqpdRU	Making a cake	Food&Drink_prep.&Presentation&Clean-up	Eating and drinking Activities	Food & Drink Prep., Presentation, & Clean-up	Food and drink preparation	332	5	True	False	False	True	0.4021743757184595
video_on	action	20	meg	2	9878Dw_e3Nw	Polishing forniture	Housework	Household Activities	Housework	Interior cleaning	156	6	True	False	False	True	0.9242766043171288
video_on	action	20	meg	2	WkZJSFd0Ghw	Playing guitarra	Arts&Entertainment	Socializing, Relaxing, and Leisure	Arts and Entertainment	Playing musical instruments	251	2	True	False	False	True	0.6423135381191969
video_on	action	20	meg	2	6Ex2UxTTVDI	Waterskiing	Participating_in_sports&Exercise&Recreation	Sports, Exercise, and Recreation	Participating in Sports, Exercise, or Recreation	Participating in water sports	386	1	True	True	False	False	0.9783872549887748
video_on	action	20	meg	2	SlOsg-jrduU	Playing field hockey	Participating_in_sports&Exercise&Recreation	Sports, Exercise, and Recreation	Participating in Sports, Exercise, or Recreation	Playing hockey	94	1	True	True	True	True	0.4746294157812372
video_on	action	20	meg	2	pk74hrCPeH0	Playing polo	Participating_in_sports&Exercise&Recreation	Sports, Exercise, and Recreation	Participating in Sports, Exercise, or Recreation	Participating in equestrian sports	75	1	False	True	False	False	0.0
video_on	action	20	meg	2	BReD_5m1yUw	Making a lemonade	Food&Drink_prep.&Presentation&Clean-up	Eating and drinking Activities	Food & Drink Prep., Presentation, & Clean-up	Food and drink preparation	333	5	True	False	True	False	0.0053518682252615
video_on	action	20	meg	2	Qy9rSDHM5_I	Paintball	Participating_in_sports&Exercise&Recreation	Sports, Exercise, and Recreation	Participating in Sports, Exercise, or Recreation	Playing sports	141	1	True	True	False	False	0.707176526542753
video_on	action	20	meg	2	TDG6ZzJWXGk	Playing squash	Participating_in_sports&Exercise&Recreation	Sports, Exercise, and Recreation	Participating in Sports, Exercise, or Recreation	Playing racquet sports	194	1	True	True	True	True	0.8294804047327489
video_on	action	20	meg	2	v7ToQbA4zxU	Bathing dog	Animals&Pets	Household Activities	Animals and Pets	Care for animals and pets (not veterinary care)	90	8	True	False	True	False	0.0053817534353584
video_on	action	20	meg	2	ABl9Gl9XjrU	Kneeling	Participating_in_sports&Exercise&Recreation	Sports, Exercise, and Recreation	Participating in Sports, Exercise, or Recreation	Working out	328	1	True	True	True	True	0.403737160959281
video_on	action	20	meg	2	2i6juv_t5KI	Drum corps	Arts&Entertainment	Socializing, Relaxing, and Leisure	Arts and Entertainment	Playing musical instruments	307	2	True	False	False	True	0.7979982944671065
video_on	action	20	meg	2	6a-01c2v5I4	Playing lacrosse	Participating_in_sports&Exercise&Recreation	Sports, Exercise, and Recreation	Participating in Sports, Exercise, or Recreation	Playing racquet sports	209	1	True	True	False	False	0.7798461968777701
video_on	action	20	meg	2	aTdCDKEuxME	Long jump	Participating_in_sports&Exercise&Recreation	Sports, Exercise, and Recreation	Participating in Sports, Exercise, or Recreation	Playing sports	80	1	True	True	True	True	0.3879855404375121
video_on	action	20	meg	2	NtNdj34ujeo	Painting fence	Exterior_maintenance&Repair&Decoration	Household Activities	Exterior Maintenance, Repair, & Decoration	Painting fence	336	12	True	False	False	True	0.5244003713596612
video_on	action	20	meg	2	J5U96P8h2zE	Welding	Appliances&Tools&Toys	Household Activities	Appliances, Tools, and Toys	Appliance, tool, and toy set-up, repair, & maintenance (by self)	388	10	True	False	False	True	0.948405744624324
video_on	action	20	meg	2	Oq7YYqN3IR0	Discus throw	Participating_in_sports&Exercise&Recreation	Sports, Exercise, and Recreation	Participating in Sports, Exercise, or Recreation	Playing sports	92	1	False	True	False	False	0.0
video_on	action	20	meg	2	9-DxoAMQSDE	Painting	Interior_maintenance&Repair&Decoration	Household Activities	Interior Maintenance, Repair, & Decoration	Interior arrangement, decoration, & repairs	217	7	True	False	True	False	0.3967105135088786
video_on	action	20	meg	2	z1Meszu5W_k	Painting furniture	Interior_maintenance&Repair&Decoration	Household Activities	Interior Maintenance, Repair, & Decoration	Building and repairing furniture	337	7	True	False	False	True	1.2127359309233725
video_on	action	20	meg	2	3ApL6aSJerc	Getting a tattoo	Grooming	Personal Care	Grooming	Washing, dressing and grooming	187	4	True	False	False	True	0.3831214954843744
video_on	action	20	meg	2	9GhaTQttYHk	Doing step aerobics	Participating_in_sports&Exercise&Recreation	Sports, Exercise, and Recreation	Participating in Sports, Exercise, or Recreation	Doing aerobics	230	1	False	True	False	False	0.0
video_on	action	20	meg	2	nPo_l4eQ8Gk	Mooping floor	Housework	Household Activities	Housework	Interior cleaning	335	6	True	False	False	True	0.5094562551239505
video_on	action	20	meg	2	fogfuD6Jap0	Playing beach volleyball	Participating_in_sports&Exercise&Recreation	Sports, Exercise, and Recreation	Participating in Sports, Exercise, or Recreation	Playing volleyball	341	1	True	True	True	True	0.9649896231712772
video_on	action	20	meg	2	CtooIi6Mk7U	Kite flying	Relaxing&Leisure	Socializing, Relaxing, and Leisure	Relaxing and Leisure	Playing games	327	3	False	False	False	True	0.0
video_on	action	20	eeg	2	iHAfSbsQnVI	Using the rowing machine	Participating_in_sports&Exercise&Recreation	Sports, Exercise, and Recreation	Participating in Sports, Exercise, or Recreation	Using cardiovascular equipment	384	1	True	True	True	True	0.8653325000050245
video_on	action	20	eeg	2	8NW1CLyptoY	Skateboarding	Participating_in_sports&Exercise&Recreation	Sports, Exercise, and Recreation	Participating in Sports, Exercise, or Recreation	Playing sports	176	1	True	True	True	True	0.5496322999970289
video_on	action	20	eeg	2	XT8nxW_U2kk	Spinning	Participating_in_sports&Exercise&Recreation	Sports, Exercise, and Recreation	Participating in Sports, Exercise, or Recreation	Using cardiovascular equipment	117	1	True	True	True	True	0.675613199986401
video_on	action	20	eeg	2	X6IoTFqaegc	Cleaning windows	Housework	Household Activities	Housework	Interior cleaning	143	6	True	False	False	True	0.7061823000112781
video_on	action	20	eeg	2	eX1gCUWuDdQ	Horseback riding	Participating_in_sports&Exercise&Recreation	Sports, Exercise, and Recreation	Participating in Sports, Exercise, or Recreation	Participating in equestrian sports	175	1	True	True	True	True	0.6531346999981906
video_on	action	20	eeg	2	mq4gMWvtMmM	Laying tile	Interior_maintenance&Repair&Decoration	Household Activities	Interior Maintenance, Repair, & Decoration	Interior arrangement, decoration, & repairs	330	7	True	False	False	True	0.7052076999971177
video_on	action	20	eeg	2	Ief-aHaRHGY	Sharpening knives	Appliances&Tools&Toys	Household Activities	Appliances, Tools, and Toys	Appliance, tool, and toy set-up, repair, & maintenance (by self)	365	10	True	False	False	True	0.4489740999997593
video_on	action	20	eeg	2	Da80iGeYZHk	Kneeling	Participating_in_sports&Exercise&Recreation	Sports, Exercise, and Recreation	Participating in Sports, Exercise, or Recreation	Working out	328	1	True	True	True	True	0.6387929999909829
video_on	action	20	eeg	2	yP4t6Iw_Z8E	Playing piano	Arts&Entertainment	Socializing, Relaxing, and Leisure	Arts and Entertainment	Playing musical instruments	197	2	True	False	False	True	0.0050713999953586
video_on	action	20	eeg	2	zuEX_UXZcDQ	Pole vault	Participating_in_sports&Exercise&Recreation	Sports, Exercise, and Recreation	Participating in Sports, Exercise, or Recreation	Playing sports	106	1	True	True	True	True	0.805852399993455
video_on	action	20	eeg	2	EN6FTjSy2I0	Using uneven bars	Participating_in_sports&Exercise&Recreation	Sports, Exercise, and Recreation	Participating in Sports, Exercise, or Recreation	Doing gymnastics	192	1	True	True	True	True	0.9704791000112892
video_on	action	20	eeg	2	_sFZo6q3DcI	Fun sliding down	Arts&Entertainment	Socializing, Relaxing, and Leisure	Arts and Entertainment	Park activities	313	2	True	False	False	True	0.6488237000012305
video_on	action	20	eeg	2	hrbT631SH8k	Sumo	Participating_in_sports&Exercise&Recreation	Sports, Exercise, and Recreation	Participating in Sports, Exercise, or Recreation	Wrestling	375	1	False	True	False	False	0.0
video_on	action	20	eeg	2	e1dT_iK9l1k	Playing accordion	Arts&Entertainment	Socializing, Relaxing, and Leisure	Arts and Entertainment	Playing musical instruments	267	2	True	False	True	False	0.0050708999915514
video_on	action	20	eeg	2	eWtV7zAkd30	Starting a campfire	Participating_in_sports&Exercise&Recreation	Sports, Exercise, and Recreation	Participating in Sports, Exercise, or Recreation	Playing sports	153	1	True	True	False	False	0.9750358999881428
video_on	action	20	eeg	2	pwv94vBT8vo	Playing guitarra	Arts&Entertainment	Socializing, Relaxing, and Leisure	Arts and Entertainment	Playing musical instruments	251	2	True	False	False	True	0.8370845000026748
video_on	action	20	eeg	2	DTc4Z2NULak	Archery	Participating_in_sports&Exercise&Recreation	Sports, Exercise, and Recreation	Participating in Sports, Exercise, or Recreation	Playing sports	250	1	True	True	True	True	0.965263199992478
video_on	action	20	eeg	2	Zbco-ngP_08	Beer pong	Relaxing&Leisure	Socializing, Relaxing, and Leisure	Relaxing and Leisure	Playing games	280	3	True	False	False	True	0.7477140000119107
video_on	action	20	eeg	2	kDr6tF27IRM	Hurling	Participating_in_sports&Exercise&Recreation	Sports, Exercise, and Recreation	Participating in Sports, Exercise, or Recreation	Playing sports	323	1	True	True	True	True	0.1809178000112297
video_on	action	20	eeg	2	CeibkdUPpOg	Surfing	Participating_in_sports&Exercise&Recreation	Sports, Exercise, and Recreation	Participating in Sports, Exercise, or Recreation	Participating in water sports	376	1	True	True	True	True	0.8632447999989381
video_on	action	20	eeg	2	fR7qntd9QUc	Volleyball	Participating_in_sports&Exercise&Recreation	Sports, Exercise, and Recreation	Participating in Sports, Exercise, or Recreation	Playing volleyball	123	1	True	True	True	True	0.5722481999982847
video_on	action	20	eeg	2	vYY0FcCzQYs	Washing dishes	Food&Drink_prep.&Presentation&Clean-up	Eating and drinking Activities	Food & Drink Prep., Presentation, & Clean-up	Kitchen and food clean-up	213	5	True	False	False	True	0.757826400003978
video_on	action	20	eeg	2	i_wwYmOb4_s	Waxing skis	Appliances&Tools&Toys	Household Activities	Appliances, Tools, and Toys	Appliance, tool, and toy set-up, repair, & maintenance (by self)	387	10	True	False	False	True	0.5804953000042588
video_on	action	20	eeg	2	YSZ-3m6Fxt8	Waterskiing	Participating_in_sports&Exercise&Recreation	Sports, Exercise, and Recreation	Participating in Sports, Exercise, or Recreation	Participating in water sports	386	1	True	True	True	True	0.8146439999982249
video_on	action	20	eeg	2	Grv66KXU8Yg	Shuffleboard	Relaxing&Leisure	Socializing, Relaxing, and Leisure	Relaxing and Leisure	Playing games	368	3	True	False	True	False	0.8314984000026016
video_on	action	20	eeg	2	giJ9M4wpnSA	Using the pommel horse	Participating_in_sports&Exercise&Recreation	Sports, Exercise, and Recreation	Participating in Sports, Exercise, or Recreation	Doing gymnastics	114	1	True	True	True	True	0.6231102000019746
video_on	action	20	eeg	2	HauWO-WGrP4	Tai chi	Participating_in_sports&Exercise&Recreation	Sports, Exercise, and Recreation	Participating in Sports, Exercise, or Recreation	Participating in martial arts	263	1	True	True	True	True	0.766799799996079
video_on	action	20	eeg	2	XSCY9xYoZXM	Washing hands	Grooming	Personal Care	Grooming	Washing, dressing and grooming oneself	173	4	True	False	False	True	0.7084889000107069
video_on	action	20	eeg	2	6HU7tXPyakU	Wrapping presents	Household_management	Household Activities	Household Management	Household & personal organization and planning	179	13	True	False	False	True	0.8217775000084657
video_on	action	20	eeg	2	d6JVt0PQi04	Putting on makeup	Grooming	Personal Care	Grooming	Washing, dressing and grooming oneself	76	4	True	False	False	True	0.8171378999977605
video_on	action	20	eeg	2	q9hDrt1O4RY	Zumba	Participating_in_sports&Exercise&Recreation	Sports, Exercise, and Recreation	Participating in Sports, Exercise, or Recreation	Doing aerobics	69	1	True	True	True	True	0.8463055000029271
video_on	action	20	eeg	2	RIHCW_-v_I0	Breakdancing	Arts&Entertainment	Socializing, Relaxing, and Leisure	Arts and Entertainment	Dancing	236	2	True	False	False	True	0.8622935000021243
video_on	action	20	eeg	2	tk8vEd_6v-I	Calf roping	Participating_in_sports&Exercise&Recreation	Sports, Exercise, and Recreation	Participating in Sports, Exercise, or Recreation	Participating in rodeo competitions	290	1	True	True	False	False	0.745773900009226
video_on	action	20	eeg	2	zsvkWWXdQkM	Getting a piercing	Grooming	Personal Care	Grooming	Washing, dressing and grooming	214	4	True	False	False	True	0.9493388999981108
video_on	action	20	eeg	2	iIw0Ucp4mws	Playing field hockey	Participating_in_sports&Exercise&Recreation	Sports, Exercise, and Recreation	Participating in Sports, Exercise, or Recreation	Playing hockey	94	1	True	True	True	True	1.1368328999960795
video_on	action	20	eeg	2	YNTzMAuIUio	Playing beach volleyball	Participating_in_sports&Exercise&Recreation	Sports, Exercise, and Recreation	Participating in Sports, Exercise, or Recreation	Playing volleyball	341	1	True	True	True	True	0.8052505999949062
video_on	action	20	eeg	2	FcnmMjNXYe4	Doing karate	Participating_in_sports&Exercise&Recreation	Sports, Exercise, and Recreation	Participating in Sports, Exercise, or Recreation	Participating in martial arts	99	1	True	True	True	True	0.973514500001329
video_on	action	20	eeg	2	OVzoRyEkiAk	Hitting a pinata	Relaxing&Leisure	Socializing, Relaxing, and Leisure	Relaxing and Leisure	Playing games	321	3	False	False	False	True	0.0
video_on	action	20	eeg	2	Egx-xOfMhfI	Drum corps	Arts&Entertainment	Socializing, Relaxing, and Leisure	Arts and Entertainment	Playing musical instruments	307	2	True	False	False	True	0.0050731999945128
video_on	action	20	eeg	2	JyqXNyHMbhA	Hand washing clothes	Housework	Household Activities	Housework	Laundry	232	6	True	False	False	True	0.0050733999960357
video_on	action	20	eeg	2	J0PaSAcml90	Croquet	Participating_in_sports&Exercise&Recreation	Sports, Exercise, and Recreation	Participating in Sports, Exercise, or Recreation	Playing sports	299	1	True	True	True	True	0.8165041000029305
video_on	action	20	eeg	2	sIa1YBOlIRo	Throwing darts	Relaxing&Leisure	Socializing, Relaxing, and Leisure	Relaxing and Leisure	Playing games	380	3	True	False	False	True	0.9730527000065194
video_on	action	20	eeg	2	Y2HkmGSMijo	Discus throw	Participating_in_sports&Exercise&Recreation	Sports, Exercise, and Recreation	Participating in Sports, Exercise, or Recreation	Playing sports	92	1	True	True	True	True	0.8701595000020461
video_on	action	20	eeg	2	zoouHAB490w	Using parallel bars	Participating_in_sports&Exercise&Recreation	Sports, Exercise, and Recreation	Participating in Sports, Exercise, or Recreation	Doing gymnastics	88	1	True	True	True	True	0.8308904000004986
video_on	action	20	eeg	2	S6FE5Fg7Dz8	Playing racquetball	Participating_in_sports&Exercise&Recreation	Sports, Exercise, and Recreation	Participating in Sports, Exercise, or Recreation	Playing racquet sports	253	1	True	True	True	True	1.1005336999951396
video_on	action	20	eeg	2	zxluXuBigiI	Decorating the Christmas tree	Interior_maintenance&Repair&Decoration	Household Activities	Interior Maintenance, Repair, & Decoration	Interior arrangement, decoration, & repairs	302	7	True	False	False	True	0.8604279999999562
video_on	action	20	eeg	2	3YADTfD1rBg	Playing saxophone	Arts&Entertainment	Socializing, Relaxing, and Leisure	Arts and Entertainment	Playing musical instruments	109	2	True	False	False	True	0.9279635999992024
video_on	action	20	eeg	2	x6sE_TZ2SOc	Making a sandwich	Food&Drink_prep.&Presentation&Clean-up	Eating and drinking Activities	Food & Drink Prep., Presentation, & Clean-up	Food and drink preparation	129	5	True	False	False	True	0.835776200008695
video_on	action	20	eeg	2	y_thstigIXo	Knitting	Housework	Household Activities	Housework	Sewing, repairing, & maintaining textiles	329	6	True	False	False	True	0.8554017999995267
video_on	action	20	eeg	2	PF0qD39Hb48	Preparing pasta	Food&Drink_prep.&Presentation&Clean-up	Eating and drinking Activities	Food & Drink Prep., Presentation, & Clean-up	Food and drink preparation	186	5	True	False	False	True	0.90336219999881
video_on	action	20	eeg	2	5-GLEVTkOMM	Hula hoop	Relaxing&Leisure	Socializing, Relaxing, and Leisure	Relaxing and Leisure	Playing games	322	3	True	False	True	False	0.9664997000072616
video_on	action	20	eeg	2	7o552HH1tYc	Shaving	Grooming	Personal Care	Grooming	Washing, dressing and grooming oneself	190	4	True	False	False	True	0.98138869999093
video_on	action	20	eeg	2	6Vi9LJjjNaI	Hand car wash	Vehicles	Household Activities	Vehicles	Vehicle repair and maintenance (by self)	318	11	True	False	False	True	0.7436638999934075
video_on	action	20	eeg	2	4ypExW73PQo	Powerbocking	Participating_in_sports&Exercise&Recreation	Sports, Exercise, and Recreation	Participating in Sports, Exercise, or Recreation	Playing sports	350	1	True	True	True	True	0.9094139999942854
video_on	action	20	eeg	2	MNj54b21V8g	Playing squash	Participating_in_sports&Exercise&Recreation	Sports, Exercise, and Recreation	Participating in Sports, Exercise, or Recreation	Playing racquet sports	194	1	True	True	True	True	1.1718249000114156
video_on	action	20	eeg	2	Vw2OYbVW6ec	Playing polo	Participating_in_sports&Exercise&Recreation	Sports, Exercise, and Recreation	Participating in Sports, Exercise, or Recreation	Participating in equestrian sports	75	1	True	True	True	True	0.979314100011834
video_on	action	20	eeg	2	Ge572Qsxpks	Shot put	Participating_in_sports&Exercise&Recreation	Sports, Exercise, and Recreation	Participating in Sports, Exercise, or Recreation	Playing sports	169	1	True	True	True	True	0.9502540999965275
video_on	action	20	eeg	2	uMtPr8zQk_Q	Hanging wallpaper	Interior_maintenance&Repair&Decoration	Household Activities	Interior Maintenance, Repair, & Decoration	Interior arrangement, decoration, & repairs	319	7	False	False	False	True	0.0
video_on	action	20	eeg	2	7oDOvpbw-Wk	Long jump	Participating_in_sports&Exercise&Recreation	Sports, Exercise, and Recreation	Participating in Sports, Exercise, or Recreation	Playing sports	80	1	True	True	False	False	0.0050803000049199
video_on	action	20	eeg	2	W0RYvQUUNe0	Windsurfing	Participating_in_sports&Exercise&Recreation	Sports, Exercise, and Recreation	Participating in Sports, Exercise, or Recreation	Participating in water sports	237	1	True	True	True	True	0.0050695999962044
video_on	action	20	eeg	2	fWJceZGsWpc	Playing drums	Arts&Entertainment	Socializing, Relaxing, and Leisure	Arts and Entertainment	Playing musical instruments	346	2	True	False	False	True	0.8122885999910068
video_on	action	20	eeg	2	QhV4wruk8_Y	Braiding hair	Grooming	Personal Care	Grooming	Washing, dressing and grooming oneself	285	4	False	False	False	True	0.0
video_on	action	20	eeg	2	HALiNyFXWnw	Ironing clothes	Housework	Household Activities	Housework	Laundry	83	6	True	False	False	True	0.0050795999995898
video_on	action	20	eeg	2	V2KbELQ4lMM	Snow tubing	Participating_in_sports&Exercise&Recreation	Sports, Exercise, and Recreation	Participating in Sports, Exercise, or Recreation	Skiing, ice skating, snowboarding	372	1	True	True	True	True	0.6098104999982752
video_on	action	20	eeg	2	1ka4HxCcSTk	Elliptical trainer	Participating_in_sports&Exercise&Recreation	Sports, Exercise, and Recreation	Participating in Sports, Exercise, or Recreation	Using cardiovascular equipment	308	1	True	True	True	True	0.8020541000005323
video_on	action	20	eeg	2	1-TjK0GL9ks	Playing ice hockey	Participating_in_sports&Exercise&Recreation	Sports, Exercise, and Recreation	Participating in Sports, Exercise, or Recreation	Playing hockey	347	1	True	True	True	True	0.6929856000060681
video_on	action	20	eeg	2	GqSBGtskN6Y	Getting a tattoo	Grooming	Personal Care	Grooming	Washing, dressing and grooming	187	4	True	False	False	True	0.7394734999979846
video_on	action	20	eeg	2	ZtnwANlQRfY	Playing congas	Arts&Entertainment	Socializing, Relaxing, and Leisure	Arts and Entertainment	Playing musical instruments	345	2	True	False	False	True	0.8339930000074673
video_on	action	20	eeg	2	_FnMzpsj1TU	Painting furniture	Interior_maintenance&Repair&Decoration	Household Activities	Interior Maintenance, Repair, & Decoration	Building and repairing furniture	337	7	True	False	False	True	0.6171213000052376
video_on	action	20	eeg	2	VBEol8UibDI	BMX	Participating_in_sports&Exercise&Recreation	Sports, Exercise, and Recreation	Participating in Sports, Exercise, or Recreation	Biking	274	1	True	True	True	True	0.5777619000000414
video_on	action	20	eeg	2	hFztsUYnR0Y	Cleaning shoes	Housework	Household Activities	Housework	Sewing, repairing, & maintaining textiles	134	6	True	False	False	True	0.7119212000106927
video_on	action	20	eeg	2	hz0tpv8D7p4	Drinking coffee	Food&Drink_prep.&Presentation&Clean-up	Eating and drinking Activities	Food & Drink Prep., Presentation, & Clean-up	Eating and Drinking	68	5	True	False	False	True	0.9264326999982586
video_on	action	20	eeg	2	9DMUpk2mPys	Smoking hookah	Relaxing&Leisure	Socializing, Relaxing, and Leisure	Relaxing and Leisure	Tobacco and drug use	189	3	True	False	False	True	0.9850592000002508
video_on	action	20	eeg	2	G4tG5S_gdnY	Tango	Arts&Entertainment	Socializing, Relaxing, and Leisure	Arts and Entertainment	Dancing	73	2	False	False	False	True	0.0
video_on	action	20	eeg	2	VVRxyGo4IMs	Scuba diving	Participating_in_sports&Exercise&Recreation	Sports, Exercise, and Recreation	Participating in Sports, Exercise, or Recreation	Participating in water sports	364	1	True	True	False	False	0.0050762000028043
video_on	action	20	eeg	2	IUXM17PIjc4	Building sandcastles	Arts&Entertainment	Socializing, Relaxing, and Leisure	Arts and Entertainment	Beach activities	286	2	True	False	False	True	0.8061338999978034
video_on	action	20	eeg	2	JlERCyY7FWA	Polishing forniture	Housework	Household Activities	Housework	Interior cleaning	156	6	True	False	False	True	0.8058787000045413
video_on	action	20	eeg	2	L922raxbV1s	Making an omelette	Food&Drink_prep.&Presentation&Clean-up	Eating and drinking Activities	Food & Drink Prep., Presentation, & Clean-up	Food and drink preparation	334	5	True	False	False	True	0.6654387000016868
video_on	action	20	eeg	2	YEdpjvbEj34	Doing crunches	Participating_in_sports&Exercise&Recreation	Sports, Exercise, and Recreation	Participating in Sports, Exercise, or Recreation	Working out	305	1	True	True	True	True	0.9621383000048808
video_on	action	20	eeg	2	xKrhfa6U4Lo	Rafting	Participating_in_sports&Exercise&Recreation	Sports, Exercise, and Recreation	Participating in Sports, Exercise, or Recreation	Boating	353	1	True	True	True	True	0.7317637999949511
video_on	action	20	eeg	2	77enttJNB74	Ice fishing	Participating_in_sports&Exercise&Recreation	Sports, Exercise, and Recreation	Participating in Sports, Exercise, or Recreation	Fishing	324	1	True	True	True	True	0.8537005999969551
video_on	action	20	eeg	2	Ac7aN4CgQPY	Playing kickball	Participating_in_sports&Exercise&Recreation	Sports, Exercise, and Recreation	Participating in Sports, Exercise, or Recreation	Playing sports	257	1	True	True	True	True	0.9759345999918878
video_on	action	20	eeg	2	KCR0awgunj0	Plataform diving	Participating_in_sports&Exercise&Recreation	Sports, Exercise, and Recreation	Participating in Sports, Exercise, or Recreation	Participating in water sports	233	1	True	True	True	True	0.8685355000052368
video_on	action	20	eeg	2	Jd7uXbVuf-g	Cricket	Participating_in_sports&Exercise&Recreation	Sports, Exercise, and Recreation	Participating in Sports, Exercise, or Recreation	Playing sports	82	1	True	True	True	True	0.5710949000058463
video_on	action	20	eeg	2	Xq8kZ1gHIhY	Slacklining	Relaxing&Leisure	Socializing, Relaxing, and Leisure	Relaxing and Leisure	Playing games	371	3	True	False	False	True	1.1375314999895636
video_on	action	20	eeg	2	ciM_WJxCs8k	Disc dog	Animals&Pets	Household Activities	Animals and Pets	Walking / exercising / playing with animals	303	8	True	False	False	True	0.9764543999917804
video_on	action	20	eeg	2	HX_w8ZTOFqo	Tug of war	Relaxing&Leisure	Socializing, Relaxing, and Leisure	Relaxing and Leisure	Playing games	382	3	True	False	True	False	0.6017139999894425
video_on	action	20	eeg	2	fC_Vc5DFNRs	Wakeboarding	Participating_in_sports&Exercise&Recreation	Sports, Exercise, and Recreation	Participating in Sports, Exercise, or Recreation	Participating in water sports	385	1	True	True	False	False	0.9798352999932832
video_on	action	20	eeg	2	497rhzVPPcg	Raking leaves	Lawn&Garden&Houseplants	Household Activities	Lawn, Garden, and Houseplants	Lawn, garden, and houseplant care	354	9	True	False	False	True	0.7567830000043614
video_on	action	20	eeg	2	jEzya8zXkmk	Spread mulch	Lawn&Garden&Houseplants	Household Activities	Lawn, Garden, and Houseplants	Lawn, garden, and houseplant care	374	9	False	False	False	True	0.0
video_on	action	20	meg	3	lOzIAeOIIaM	Painting	Interior_maintenance&Repair&Decoration	Household Activities	Interior Maintenance, Repair, & Decoration	Interior arrangement, decoration, & repairs	217	7	True	False	False	True	0.4672130529070273
video_on	action	20	meg	3	Q3KPErFXCeQ	Snatch	Participating_in_sports&Exercise&Recreation	Sports, Exercise, and Recreation	Participating in Sports, Exercise, or Recreation	Weightlifting	79	1	True	True	True	True	0.005097692948766
video_on	action	20	meg	3	aztL698FvNA	Playing flauta	Arts&Entertainment	Socializing, Relaxing, and Leisure	Arts and Entertainment	Playing musical instruments	149	2	True	False	False	True	0.5981087791733444
video_on	action	20	meg	3	IwSUfrzxFnU	Plataform diving	Participating_in_sports&Exercise&Recreation	Sports, Exercise, and Recreation	Participating in Sports, Exercise, or Recreation	Participating in water sports	233	1	True	True	True	True	0.4042998483637348
video_on	action	20	meg	3	f76S6rqJT2g	Playing racquetball	Participating_in_sports&Exercise&Recreation	Sports, Exercise, and Recreation	Participating in Sports, Exercise, or Recreation	Playing racquet sports	253	1	True	True	True	True	3.9819538589799777
video_on	action	20	meg	3	jxiaZfZHpGo	Rope skipping	Participating_in_sports&Exercise&Recreation	Sports, Exercise, and Recreation	Participating in Sports, Exercise, or Recreation	Working out	361	1	True	True	True	True	0.3792083436856046
video_on	action	20	meg	3	5BrB0NmU69Q	Rollerblading	Participating_in_sports&Exercise&Recreation	Sports, Exercise, and Recreation	Participating in Sports, Exercise, or Recreation	Playing sports	359	1	True	True	False	False	0.9566800245083869
video_on	action	20	meg	3	a4v-2zqdl5c	Using the pommel horse	Participating_in_sports&Exercise&Recreation	Sports, Exercise, and Recreation	Participating in Sports, Exercise, or Recreation	Doing gymnastics	114	1	True	True	True	True	0.4368705048691481
video_on	action	20	meg	3	fi337WmvOzY	Using parallel bars	Participating_in_sports&Exercise&Recreation	Sports, Exercise, and Recreation	Participating in Sports, Exercise, or Recreation	Doing gymnastics	88	1	True	True	False	False	0.5716271593701094
video_on	action	20	meg	3	Yjf8jVJqYO4	Washing hands	Grooming	Personal Care	Grooming	Washing, dressing and grooming oneself	173	4	True	False	False	True	0.5350488653639331
video_on	action	20	meg	3	DyPDtXuPpB4	Riding bumper cars	Relaxing&Leisure	Socializing, Relaxing, and Leisure	Relaxing and Leisure	Playing games	356	3	True	False	True	False	0.5893789762631059
video_on	action	20	meg	3	X5qhdlwYweo	Making a lemonade	Food&Drink_prep.&Presentation&Clean-up	Eating and drinking Activities	Food & Drink Prep., Presentation, & Clean-up	Food and drink preparation	333	5	True	False	False	True	0.5013483060756698
video_on	action	20	meg	3	D482SgllF3g	Raking leaves	Lawn&Garden&Houseplants	Household Activities	Lawn, Garden, and Houseplants	Lawn, garden, and houseplant care	354	9	True	False	False	True	0.5975593742914498
video_on	action	20	meg	3	-eIrCVM6jz0	Beer pong	Relaxing&Leisure	Socializing, Relaxing, and Leisure	Relaxing and Leisure	Playing games	280	3	True	False	True	False	0.541109828162007
video_on	action	20	meg	3	k5EGYsxNFQQ	Cleaning sink	Interior_maintenance&Repair&Decoration	Household Activities	Interior Maintenance, Repair, & Decoration	Interior arrangement, decoration, & repairs	297	7	True	False	False	True	0.669940154068172
video_on	action	20	meg	3	4KFKjhCCB14	Wakeboarding	Participating_in_sports&Exercise&Recreation	Sports, Exercise, and Recreation	Participating in Sports, Exercise, or Recreation	Participating in water sports	385	1	True	True	True	True	0.3888636826304719
video_on	action	20	meg	3	8ZoL_jDQyZA	Playing accordion	Arts&Entertainment	Socializing, Relaxing, and Leisure	Arts and Entertainment	Playing musical instruments	267	2	False	False	False	True	0.0
video_on	action	20	meg	3	T9Wu7XF8RWg	Fun sliding down	Arts&Entertainment	Socializing, Relaxing, and Leisure	Arts and Entertainment	Park activities	313	2	True	False	False	True	0.0050832031993195
video_on	action	20	meg	3	U2ZWpqI-ypI	Cricket	Participating_in_sports&Exercise&Recreation	Sports, Exercise, and Recreation	Participating in Sports, Exercise, or Recreation	Playing sports	82	1	False	True	False	False	0.0
video_on	action	20	meg	3	cD9GuycuaW4	Waterskiing	Participating_in_sports&Exercise&Recreation	Sports, Exercise, and Recreation	Participating in Sports, Exercise, or Recreation	Participating in water sports	386	1	True	True	False	False	1.512715554679744
video_on	action	20	meg	3	TZUF41c2Ik0	Decorating the Christmas tree	Interior_maintenance&Repair&Decoration	Household Activities	Interior Maintenance, Repair, & Decoration	Interior arrangement, decoration, & repairs	302	7	True	False	False	True	0.7426940463483334
video_on	action	20	meg	3	GIZlpNRIYEA	Drum corps	Arts&Entertainment	Socializing, Relaxing, and Leisure	Arts and Entertainment	Playing musical instruments	307	2	True	False	False	True	0.3271350192371756
video_on	action	20	meg	3	lFP7poJrabQ	Preparing salad	Food&Drink_prep.&Presentation&Clean-up	Eating and drinking Activities	Food & Drink Prep., Presentation, & Clean-up	Food and drink preparation	96	5	True	False	False	True	0.3851899144938215
video_on	action	20	meg	3	IzF1L_y1Ywo	Croquet	Participating_in_sports&Exercise&Recreation	Sports, Exercise, and Recreation	Participating in Sports, Exercise, or Recreation	Playing sports	299	1	True	True	False	False	0.9353247754042968
video_on	action	20	meg	3	mfJaicYlteo	Baton twirling	Participating_in_sports&Exercise&Recreation	Sports, Exercise, and Recreation	Participating in Sports, Exercise, or Recreation	Playing sports	277	1	True	True	False	False	1.7987771212356165
video_on	action	20	meg	3	7bHLl6WQ6Us	Grooming horse	Animals&Pets	Household Activities	Animals and Pets	Walking / exercising / playing with animals	95	8	True	False	False	True	0.7458630864275619
video_on	action	20	meg	3	hnwAcGvGEF0	Tug of war	Relaxing&Leisure	Socializing, Relaxing, and Leisure	Relaxing and Leisure	Playing games	382	3	True	False	False	True	0.8477176299784333
video_on	action	20	meg	3	gVi0rmvBWp8	Doing nails	Grooming	Personal Care	Grooming	Washing, dressing and grooming oneself	167	4	True	False	False	True	0.5747430701740086
video_on	action	20	meg	3	P1Yn5XexoDM	Kneeling	Participating_in_sports&Exercise&Recreation	Sports, Exercise, and Recreation	Participating in Sports, Exercise, or Recreation	Working out	328	1	False	True	False	False	0.0
video_on	action	20	meg	3	1fPQRZTbFww	Longboarding	Participating_in_sports&Exercise&Recreation	Sports, Exercise, and Recreation	Participating in Sports, Exercise, or Recreation	Playing sports	331	1	True	True	False	False	0.0050985985435545
video_on	action	20	meg	3	mNwMubkNPTQ	Pole vault	Participating_in_sports&Exercise&Recreation	Sports, Exercise, and Recreation	Participating in Sports, Exercise, or Recreation	Playing sports	106	1	False	True	False	False	0.0
video_on	action	20	meg	3	-5wugOa7P6Q	Playing polo	Participating_in_sports&Exercise&Recreation	Sports, Exercise, and Recreation	Participating in Sports, Exercise, or Recreation	Participating in equestrian sports	75	1	True	True	True	True	0.0051529352786019
video_on	action	20	meg	3	QFiM_bQfM-I	Using the rowing machine	Participating_in_sports&Exercise&Recreation	Sports, Exercise, and Recreation	Participating in Sports, Exercise, or Recreation	Using cardiovascular equipment	384	1	False	True	False	False	0.0
video_on	action	20	meg	3	m-YISzAXP4k	Kayaking	Participating_in_sports&Exercise&Recreation	Sports, Exercise, and Recreation	Participating in Sports, Exercise, or Recreation	Participating in water sports	254	1	True	True	True	True	0.0051088620675727
video_on	action	20	meg	3	AYELGfblJj0	Sharpening knives	Appliances&Tools&Toys	Household Activities	Appliances, Tools, and Toys	Appliance, tool, and toy set-up, repair, & maintenance (by self)	365	10	True	False	True	False	0.0051296912133693
video_on	action	20	meg	3	CZ-mV3ELw2M	Sailing	Participating_in_sports&Exercise&Recreation	Sports, Exercise, and Recreation	Participating in Sports, Exercise, or Recreation	Participating in water sports	240	1	True	True	True	True	0.529263510601595
video_on	action	20	meg	3	Sys6p76c6QA	Canoeing	Participating_in_sports&Exercise&Recreation	Sports, Exercise, and Recreation	Participating in Sports, Exercise, or Recreation	Boating	292	1	True	True	False	False	0.005097089218907
video_on	action	20	meg	3	lvtML9zGcfc	Washing dishes	Food&Drink_prep.&Presentation&Clean-up	Eating and drinking Activities	Food & Drink Prep., Presentation, & Clean-up	Kitchen and food clean-up	213	5	False	False	False	True	0.0
video_on	action	20	meg	3	ZcqWMH9UVHE	Ping-pong	Participating_in_sports&Exercise&Recreation	Sports, Exercise, and Recreation	Participating in Sports, Exercise, or Recreation	Playing racquet sports	119	1	True	True	False	False	0.0053536794148385
video_on	action	20	meg	3	P6T_uP7v5yk	Smoking hookah	Relaxing&Leisure	Socializing, Relaxing, and Leisure	Relaxing and Leisure	Tobacco and drug use	189	3	True	False	False	True	0.0053524719551205
video_on	action	20	meg	3	Id4Fpnmr2xw	Starting a campfire	Participating_in_sports&Exercise&Recreation	Sports, Exercise, and Recreation	Participating in Sports, Exercise, or Recreation	Playing sports	153	1	True	True	False	False	0.005350358900614
video_on	action	20	meg	3	fGDVlbI90pw	Brushing hair	Grooming	Personal Care	Grooming	Washing, dressing and grooming oneself	125	4	True	False	False	True	0.4474302489543333
video_on	action	20	meg	3	H_vx3D10w1Y	Clean and jerk	Participating_in_sports&Exercise&Recreation	Sports, Exercise, and Recreation	Participating in Sports, Exercise, or Recreation	Weightlifting	84	1	True	True	True	True	0.8576851034304127
video_on	action	20	meg	3	wSAH9gsmSm0	Polishing shoes	Housework	Household Activities	Housework	Sewing, repairing, & maintaining textiles	227	6	True	False	False	True	0.890273570548743
video_on	action	20	meg	3	wz5ha4vY0c8	Skateboarding	Participating_in_sports&Exercise&Recreation	Sports, Exercise, and Recreation	Participating in Sports, Exercise, or Recreation	Playing sports	176	1	True	True	True	True	0.8013508720323443
video_on	action	20	meg	3	5tafa4IZL4s	Playing ice hockey	Participating_in_sports&Exercise&Recreation	Sports, Exercise, and Recreation	Participating in Sports, Exercise, or Recreation	Playing hockey	347	1	False	True	False	False	0.0
video_on	action	20	meg	3	EToWSlbupmg	Welding	Appliances&Tools&Toys	Household Activities	Appliances, Tools, and Toys	Appliance, tool, and toy set-up, repair, & maintenance (by self)	388	10	True	False	False	True	0.0050961836241185
video_on	action	20	meg	3	BbbziqPAbnc	Sumo	Participating_in_sports&Exercise&Recreation	Sports, Exercise, and Recreation	Participating in Sports, Exercise, or Recreation	Wrestling	375	1	True	True	True	True	0.4591256311396137
video_on	action	20	meg	3	lWSfgTqz_nk	Powerbocking	Participating_in_sports&Exercise&Recreation	Sports, Exercise, and Recreation	Participating in Sports, Exercise, or Recreation	Playing sports	350	1	True	True	True	True	0.4047620126511901
video_on	action	20	meg	3	dKDQmN-U3zE	Chopping wood	Interior_maintenance&Repair&Decoration	Household Activities	Interior Maintenance, Repair, & Decoration	Heating and cooling	110	7	True	False	True	False	1.355234968708828
video_on	action	20	meg	3	mAU1ypkYgzI	Ice fishing	Participating_in_sports&Exercise&Recreation	Sports, Exercise, and Recreation	Participating in Sports, Exercise, or Recreation	Fishing	324	1	True	True	False	False	0.7071400001877919
video_on	action	20	meg	3	vtXm57kz-jY	Doing fencing	Participating_in_sports&Exercise&Recreation	Sports, Exercise, and Recreation	Participating in Sports, Exercise, or Recreation	Fencing	309	1	True	True	True	True	0.5333894812501967
video_on	action	20	meg	3	LWR3hnvtwts	High jump	Participating_in_sports&Exercise&Recreation	Sports, Exercise, and Recreation	Participating in Sports, Exercise, or Recreation	Playing sports	195	1	True	True	True	True	0.4759660998824984
video_on	action	20	meg	3	R3HP_yb8HBc	Shaving	Grooming	Personal Care	Grooming	Washing, dressing and grooming oneself	190	4	True	False	False	True	0.4434313658857718
video_on	action	20	meg	3	jY7qtFnWKGA	Playing guitarra	Arts&Entertainment	Socializing, Relaxing, and Leisure	Arts and Entertainment	Playing musical instruments	251	2	True	False	False	True	0.4774286641040817
video_on	action	20	meg	3	DMFnQ7gIbTs	Spread mulch	Lawn&Garden&Houseplants	Household Activities	Lawn, Garden, and Houseplants	Lawn, garden, and houseplant care	374	9	True	False	False	True	0.0053989600855857
video_on	action	20	meg	3	L1c1CocMMgM	Spinning	Participating_in_sports&Exercise&Recreation	Sports, Exercise, and Recreation	Participating in Sports, Exercise, or Recreation	Using cardiovascular equipment	117	1	True	True	True	True	0.4758770479820668
video_on	action	20	meg	3	vFK10VN2l28	Hula hoop	Relaxing&Leisure	Socializing, Relaxing, and Leisure	Relaxing and Leisure	Playing games	322	3	True	False	False	True	0.9422973881009966
video_on	action	20	meg	3	ggN525dDSt8	Fixing bicycle	Vehicles	Household Activities	Vehicles	Vehicle repair and maintenance (by self)	171	11	True	False	False	True	0.8262983842287213
video_on	action	20	meg	3	iZ5UFfKnkIA	Doing motocross	Participating_in_sports&Exercise&Recreation	Sports, Exercise, and Recreation	Participating in Sports, Exercise, or Recreation	Playing sports	243	1	True	True	True	True	0.4843309411080554
video_on	action	20	meg	3	0FfmAmyeZGQ	Rock-paper-scissors	Relaxing&Leisure	Socializing, Relaxing, and Leisure	Relaxing and Leisure	Playing games	358	3	True	False	False	True	0.2467857546871528
video_on	action	20	meg	3	tz_HKHIAGO8	Hanging wallpaper	Interior_maintenance&Repair&Decoration	Household Activities	Interior Maintenance, Repair, & Decoration	Interior arrangement, decoration, & repairs	319	7	False	False	False	True	0.0
video_on	action	20	meg	3	fwqK3EwBzC0	Assembling bicycle	Vehicles	Household Activities	Vehicles	Vehicle repair and maintenance (by self)	273	11	True	False	False	True	0.005125464987941
video_on	action	20	meg	3	kcvgZ4h2PLY	Breakdancing	Arts&Entertainment	Socializing, Relaxing, and Leisure	Arts and Entertainment	Dancing	236	2	False	False	False	True	0.0
video_on	action	20	meg	3	euuwLvcwExU	Getting a tattoo	Grooming	Personal Care	Grooming	Washing, dressing and grooming	187	4	True	False	False	True	1.5010464353254065
video_on	action	20	meg	3	zHl_5MZ4w2s	Paintball	Participating_in_sports&Exercise&Recreation	Sports, Exercise, and Recreation	Participating in Sports, Exercise, or Recreation	Playing sports	141	1	True	True	False	False	0.6315141087397933
video_on	action	20	meg	3	57ZbUj8JFUY	Doing karate	Participating_in_sports&Exercise&Recreation	Sports, Exercise, and Recreation	Participating in Sports, Exercise, or Recreation	Participating in martial arts	99	1	True	True	True	True	0.5982413004385307
video_on	action	20	meg	3	rodN39kN6lA	Doing kickboxing	Participating_in_sports&Exercise&Recreation	Sports, Exercise, and Recreation	Participating in Sports, Exercise, or Recreation	Participating in martial arts	70	1	True	True	True	True	0.4843384877312928
video_on	action	20	meg	3	kFfgEv0Z6PE	Snow tubing	Participating_in_sports&Exercise&Recreation	Sports, Exercise, and Recreation	Participating in Sports, Exercise, or Recreation	Skiing, ice skating, snowboarding	372	1	True	True	True	True	0.7503337936941534
video_on	action	20	meg	3	sb9QGDf1150	Hand washing clothes	Housework	Household Activities	Housework	Laundry	232	6	True	False	False	True	0.1092467567650601
video_on	action	20	meg	3	XJKCsfHT-EU	Bullfighting	Participating_in_sports&Exercise&Recreation	Sports, Exercise, and Recreation	Participating in Sports, Exercise, or Recreation	Participating in rodeo competitions	288	1	True	True	False	False	0.005096485489048
video_on	action	20	meg	3	GyOLWizKXaE	Mowing the lawn	Lawn&Garden&Houseplants	Household Activities	Lawn, Garden, and Houseplants	Lawn, garden, and houseplant care	218	9	True	False	False	True	0.5009682506788522
video_on	action	20	meg	3	PQtRZc4mEcs	Making an omelette	Food&Drink_prep.&Presentation&Clean-up	Eating and drinking Activities	Food & Drink Prep., Presentation, & Clean-up	Food and drink preparation	334	5	False	False	False	True	0.0
video_on	action	20	meg	3	BDpGUqHiLRI	Cleaning shoes	Housework	Household Activities	Housework	Sewing, repairing, & maintaining textiles	134	6	True	False	False	True	0.005096485489048
video_on	action	20	meg	3	EY1rcfXRZZs	Belly dance	Arts&Entertainment	Socializing, Relaxing, and Leisure	Arts and Entertainment	Dancing	247	2	True	False	False	True	0.0051239556632936
video_on	action	20	meg	3	sUoUkKRsA9c	Fixing the roof	Exterior_maintenance&Repair&Decoration	Household Activities	Exterior Maintenance, Repair, & Decoration	Exterior repair, improvements, & decoration	311	12	False	False	False	True	0.0
video_on	action	20	meg	3	A0R3KFXD_BU	Playing blackjack	Arts&Entertainment	Socializing, Relaxing, and Leisure	Arts and Entertainment	Attending gambling establishments	343	2	True	False	False	True	0.0053600186947733
video_on	action	20	meg	3	YdWpgYxzQSQ	Calf roping	Participating_in_sports&Exercise&Recreation	Sports, Exercise, and Recreation	Participating in Sports, Exercise, or Recreation	Participating in rodeo competitions	290	1	True	True	True	True	0.5033029199112207
video_on	action	20	meg	3	Ha1G5qHy3C4	Getting a haircut	Grooming	Personal Care	Grooming	Washing, dressing and grooming	208	4	True	False	False	True	0.7980305945966393
video_on	action	20	meg	3	SFi4hleirCg	Playing piano	Arts&Entertainment	Socializing, Relaxing, and Leisure	Arts and Entertainment	Playing musical instruments	197	2	True	False	False	True	0.4475313756847754
video_on	action	20	meg	3	5_U3xvV1XGo	Long jump	Participating_in_sports&Exercise&Recreation	Sports, Exercise, and Recreation	Participating in Sports, Exercise, or Recreation	Playing sports	80	1	False	True	False	False	0.0
video_on	action	20	meg	3	Qvw_niGdgDU	Vacuuming floor	Housework	Household Activities	Housework	Interior cleaning	160	6	False	False	False	True	0.0
video_on	action	20	meg	3	Vrwiuu-eku8	Playing kickball	Participating_in_sports&Exercise&Recreation	Sports, Exercise, and Recreation	Participating in Sports, Exercise, or Recreation	Playing sports	257	1	True	True	False	False	0.0050943724345415
video_on	action	20	meg	3	ziKZpdtBcHI	Hand car wash	Vehicles	Household Activities	Vehicles	Vehicle repair and maintenance (by self)	318	11	False	False	False	True	0.0
video_on	action	20	meg	3	1XZGkOWd5WM	Grooming dog	Animals&Pets	Household Activities	Animals and Pets	Care for animals and pets (not veterinary care)	317	8	True	False	False	True	0.0053446232341229
video_on	action	20	meg	3	nhhN5lKHrbE	Surfing	Participating_in_sports&Exercise&Recreation	Sports, Exercise, and Recreation	Participating in Sports, Exercise, or Recreation	Participating in water sports	376	1	True	True	True	True	0.3526132203405723
video_on	action	20	meg	3	pTtKk6N6CT8	Playing pool	Relaxing&Leisure	Socializing, Relaxing, and Leisure	Relaxing and Leisure	Playing games	348	3	True	False	True	False	0.5306418528780341
video_on	action	20	meg	3	mNoILgyl7Tk	Making a sandwich	Food&Drink_prep.&Presentation&Clean-up	Eating and drinking Activities	Food & Drink Prep., Presentation, & Clean-up	Food and drink preparation	129	5	False	False	False	True	0.0
video_on	action	20	meg	3	_9M_rlaofiM	Cleaning windows	Housework	Household Activities	Housework	Interior cleaning	143	6	True	False	False	True	0.0050973910838365
video_on	action	20	meg	3	JofbduVnDS8	Bathing dog	Animals&Pets	Household Activities	Animals and Pets	Care for animals and pets (not veterinary care)	90	8	False	False	False	True	0.0
video_on	action	20	eeg	3	jf5yo-rzLqA	Doing fencing	Participating_in_sports&Exercise&Recreation	Sports, Exercise, and Recreation	Participating in Sports, Exercise, or Recreation	Fencing	309	1	True	True	True	True	0.6542462000070373
video_on	action	20	eeg	3	ulIW5kMy5NQ	Playing water polo	Participating_in_sports&Exercise&Recreation	Sports, Exercise, and Recreation	Participating in Sports, Exercise, or Recreation	Participating in water sports	130	1	True	True	True	True	0.9173142999934498
video_on	action	20	eeg	3	x0qQt6yPlTc	Doing motocross	Participating_in_sports&Exercise&Recreation	Sports, Exercise, and Recreation	Participating in Sports, Exercise, or Recreation	Playing sports	243	1	True	True	True	True	0.8971350999927381
video_on	action	20	eeg	3	maKGfmOZo54	Disc dog	Animals&Pets	Household Activities	Animals and Pets	Walking / exercising / playing with animals	303	8	True	False	False	True	0.6920619000011357
video_on	action	20	eeg	3	bzVOw4j1lss	Doing nails	Grooming	Personal Care	Grooming	Washing, dressing and grooming oneself	167	4	True	False	False	True	0.6812913000030676
video_on	action	20	eeg	3	hG1SYDCD0Qc	Using the rowing machine	Participating_in_sports&Exercise&Recreation	Sports, Exercise, and Recreation	Participating in Sports, Exercise, or Recreation	Using cardiovascular equipment	384	1	True	True	True	True	0.7351615000079619
video_on	action	20	eeg	3	0WLDsG5ECz0	BMX	Participating_in_sports&Exercise&Recreation	Sports, Exercise, and Recreation	Participating in Sports, Exercise, or Recreation	Biking	274	1	True	True	True	True	0.8403530999930808
video_on	action	20	eeg	3	e1jfhfqz1yY	Beach soccer	Participating_in_sports&Exercise&Recreation	Sports, Exercise, and Recreation	Participating in Sports, Exercise, or Recreation	Playing soccer	278	1	True	True	True	True	0.9571179000049596
