event_name	task	subject	session	run	video_id	class_name	raw_superclass_name	superclass_level0	superclass_level1	superclass_level2	class_id	superclass_id	is_resp	stim_is_sports	resp_is_sports	resp_is_right	resp_time
video_on	action	15	meg	1	kDZnUjXMr4A	Putting on shoes	Grooming	Personal Care	Grooming	Washing, dressing and grooming oneself	352	4	True	False	False	True	0.5765182834002189
video_on	action	15	meg	1	GiuQqZUvDRs	Playing accordion	Arts&Entertainment	Socializing, Relaxing, and Leisure	Arts and Entertainment	Playing musical instruments	267	2	True	False	False	True	0.355305709381355
video_on	action	15	meg	1	dvaJXCx2R44	High jump	Participating_in_sports&Exercise&Recreation	Sports, Exercise, and Recreation	Participating in Sports, Exercise, or Recreation	Playing sports	195	1	True	True	True	True	0.3454476024926407
video_on	action	15	meg	1	HN09RLMdBmc	Tug of war	Relaxing&Leisure	Socializing, Relaxing, and Leisure	Relaxing and Leisure	Playing games	382	3	True	False	True	False	0.3962043103820178
video_on	action	15	meg	1	_WfBM6wZdKE	Clean and jerk	Participating_in_sports&Exercise&Recreation	Sports, Exercise, and Recreation	Participating in Sports, Exercise, or Recreation	Weightlifting	84	1	True	True	True	True	0.5854955391405383
video_on	action	15	meg	1	seq6IplDTYs	Playing water polo	Participating_in_sports&Exercise&Recreation	Sports, Exercise, and Recreation	Participating in Sports, Exercise, or Recreation	Participating in water sports	130	1	True	True	True	True	0.3799336192023475
video_on	action	15	meg	1	EMNnHHH3_PU	Building sandcastles	Arts&Entertainment	Socializing, Relaxing, and Leisure	Arts and Entertainment	Beach activities	286	2	True	False	False	True	0.4100636790826684
video_on	action	15	meg	1	_KWU3KnyqWM	Beach soccer	Participating_in_sports&Exercise&Recreation	Sports, Exercise, and Recreation	Participating in Sports, Exercise, or Recreation	Playing soccer	278	1	True	True	True	True	0.4260599721455946
video_on	action	15	meg	1	D-gN1WfDvaY	Playing ice hockey	Participating_in_sports&Exercise&Recreation	Sports, Exercise, and Recreation	Participating in Sports, Exercise, or Recreation	Playing hockey	347	1	True	True	True	True	0.4901335917238612
video_on	action	15	meg	1	n0d5_Daf7bk	Grooming dog	Animals&Pets	Household Activities	Animals and Pets	Care for animals and pets (not veterinary care)	317	8	True	False	False	True	0.5625436010741396
video_on	action	15	meg	1	CaDoaqs_5jE	Ice fishing	Participating_in_sports&Exercise&Recreation	Sports, Exercise, and Recreation	Participating in Sports, Exercise, or Recreation	Fishing	324	1	True	True	False	False	0.4100331903900951
video_on	action	15	meg	1	Zev1KxIua7o	Drum corps	Arts&Entertainment	Socializing, Relaxing, and Leisure	Arts and Entertainment	Playing musical instruments	307	2	True	False	False	True	0.5469364160089754
video_on	action	15	meg	1	DdqjCWXklcY	Running a marathon	Participating_in_sports&Exercise&Recreation	Sports, Exercise, and Recreation	Participating in Sports, Exercise, or Recreation	Running	362	1	True	True	True	True	0.4663635910837911
video_on	action	15	meg	1	7vx6tdLy_rg	Skiing	Participating_in_sports&Exercise&Recreation	Sports, Exercise, and Recreation	Participating in Sports, Exercise, or Recreation	Skiing, ice skating, snowboarding	369	1	True	True	True	True	0.4025305603718152
video_on	action	15	meg	1	f4nkCEGt1wg	Hurling	Participating_in_sports&Exercise&Recreation	Sports, Exercise, and Recreation	Participating in Sports, Exercise, or Recreation	Playing sports	323	1	True	True	True	True	0.4272493324824609
video_on	action	15	meg	1	CPIEmbEUgqk	Snow tubing	Participating_in_sports&Exercise&Recreation	Sports, Exercise, and Recreation	Participating in Sports, Exercise, or Recreation	Skiing, ice skating, snowboarding	372	1	True	True	False	False	0.5416341026575537
video_on	action	15	meg	1	lW9mM9-eqX0	Sharpening knives	Appliances&Tools&Toys	Household Activities	Appliances, Tools, and Toys	Appliance, tool, and toy set-up, repair, & maintenance (by self)	365	10	True	False	False	True	0.8917141731653828
video_on	action	15	meg	1	ZXrir-FeWRI	Swinging at the playground	Arts&Entertainment	Socializing, Relaxing, and Leisure	Arts and Entertainment	Park activities	378	2	True	False	True	False	0.659787998025422
video_on	action	15	meg	1	8OzkuLebh7E	Rafting	Participating_in_sports&Exercise&Recreation	Sports, Exercise, and Recreation	Participating in Sports, Exercise, or Recreation	Boating	353	1	True	True	True	True	0.5018536211428
video_on	action	15	meg	1	8704hqlYQi4	Cutting the grass	Lawn&Garden&Houseplants	Household Activities	Lawn, Garden, and Houseplants	Lawn, garden, and houseplant care	301	9	True	False	True	False	0.6280945632024668
video_on	action	15	meg	1	wQTj0pOj9Ys	Breakdancing	Arts&Entertainment	Socializing, Relaxing, and Leisure	Arts and Entertainment	Dancing	236	2	True	False	True	False	0.4760931021592114
video_on	action	15	meg	1	BcUeDS7R-YQ	Making an omelette	Food&Drink_prep.&Presentation&Clean-up	Eating and drinking Activities	Food & Drink Prep., Presentation, & Clean-up	Food and drink preparation	334	5	True	False	False	True	0.5082070392527385
video_on	action	15	meg	1	orpyhrsyhCc	Capoeira	Participating_in_sports&Exercise&Recreation	Sports, Exercise, and Recreation	Participating in Sports, Exercise, or Recreation	Participating in martial arts	294	1	True	True	True	True	0.9853929039963988
video_on	action	15	meg	1	3STvJvZjVHo	Getting a haircut	Grooming	Personal Care	Grooming	Washing, dressing and grooming	208	4	True	False	True	False	0.6606531520374119
video_on	action	15	meg	1	JED5WWMWd9U	Futsal	Participating_in_sports&Exercise&Recreation	Sports, Exercise, and Recreation	Participating in Sports, Exercise, or Recreation	Playing soccer	315	1	True	True	True	True	0.5647756138787372
video_on	action	15	meg	1	q4a0t-6rQM0	Putting on makeup	Grooming	Personal Care	Grooming	Washing, dressing and grooming oneself	76	4	True	False	False	True	0.4449916307057719
video_on	action	15	meg	1	U2XwUfrS7z4	Triple jump	Participating_in_sports&Exercise&Recreation	Sports, Exercise, and Recreation	Participating in Sports, Exercise, or Recreation	Playing sports	155	1	True	True	True	True	0.5913650626898743
video_on	action	15	meg	1	kHCjIcNKT9g	Doing step aerobics	Participating_in_sports&Exercise&Recreation	Sports, Exercise, and Recreation	Participating in Sports, Exercise, or Recreation	Doing aerobics	230	1	True	True	True	True	0.6313477958319709
video_on	action	15	meg	1	8TMbzdItBrk	Trimming branches or hedges	Lawn&Garden&Houseplants	Household Activities	Lawn, Garden, and Houseplants	Lawn, garden, and houseplant care	381	9	True	False	False	True	0.5113775600329973
video_on	action	15	meg	1	q5OICkPMTYE	Hanging wallpaper	Interior_maintenance&Repair&Decoration	Household Activities	Interior Maintenance, Repair, & Decoration	Interior arrangement, decoration, & repairs	319	7	True	False	False	True	0.5490766609145794
video_on	action	15	meg	1	h32h8mkHxsA	Cricket	Participating_in_sports&Exercise&Recreation	Sports, Exercise, and Recreation	Participating in Sports, Exercise, or Recreation	Playing sports	82	1	True	True	True	True	0.5018216231110273
video_on	action	15	meg	1	Z-ptkaWVEjI	Disc dog	Animals&Pets	Household Activities	Animals and Pets	Walking / exercising / playing with animals	303	8	True	False	True	False	0.8052724284352735
video_on	action	15	meg	1	KiNpJwlOv_Q	Playing beach volleyball	Participating_in_sports&Exercise&Recreation	Sports, Exercise, and Recreation	Participating in Sports, Exercise, or Recreation	Playing volleyball	341	1	True	True	False	False	0.0955442757549462
video_on	action	15	meg	1	zMoHD4JJ7Tw	Javelin throw	Participating_in_sports&Exercise&Recreation	Sports, Exercise, and Recreation	Participating in Sports, Exercise, or Recreation	Playing sports	116	1	True	True	True	True	0.6375267341936706
video_on	action	15	meg	1	cK-NafUws1I	Wakeboarding	Participating_in_sports&Exercise&Recreation	Sports, Exercise, and Recreation	Participating in Sports, Exercise, or Recreation	Participating in water sports	385	1	True	True	False	False	0.3264054601895623
video_on	action	15	meg	1	dk6mEZuYd_0	Cleaning windows	Housework	Household Activities	Housework	Interior cleaning	143	6	True	False	False	True	0.4305964460945688
video_on	action	15	meg	1	VGXNuaYloPw	Preparing pasta	Food&Drink_prep.&Presentation&Clean-up	Eating and drinking Activities	Food & Drink Prep., Presentation, & Clean-up	Food and drink preparation	186	5	True	False	False	True	0.5981287195900222
video_on	action	15	meg	1	-p288FKdSlg	Walking the dog	Animals&Pets	Household Activities	Animals and Pets	Walking / exercising / playing with animals	221	8	True	False	True	False	0.8307325886271428
video_on	action	15	meg	1	sNt1c4NHkCA	Archery	Participating_in_sports&Exercise&Recreation	Sports, Exercise, and Recreation	Participating in Sports, Exercise, or Recreation	Playing sports	250	1	True	True	True	True	0.9430619388149352
video_on	action	15	meg	1	hbKICTA70TU	Welding	Appliances&Tools&Toys	Household Activities	Appliances, Tools, and Toys	Appliance, tool, and toy set-up, repair, & maintenance (by self)	388	10	True	False	False	True	0.51053866854636
video_on	action	15	meg	1	L3cZJq3jvaQ	Pole vault	Participating_in_sports&Exercise&Recreation	Sports, Exercise, and Recreation	Participating in Sports, Exercise, or Recreation	Playing sports	106	1	True	True	True	True	0.422809456315008
video_on	action	15	meg	1	jGtR6lOYB5o	Camel ride	Participating_in_sports&Exercise&Recreation	Sports, Exercise, and Recreation	Participating in Sports, Exercise, or Recreation	Playing sports	291	1	True	True	True	True	0.5829852039314574
video_on	action	15	meg	1	KvNTvJK42RI	Grooming horse	Animals&Pets	Household Activities	Animals and Pets	Walking / exercising / playing with animals	95	8	True	False	False	True	0.6091420757293236
video_on	action	15	meg	1	hGHo3H-IfSA	Washing hands	Grooming	Personal Care	Grooming	Washing, dressing and grooming oneself	173	4	True	False	False	True	0.9111611206026282
video_on	action	15	meg	1	zKNmQqax_KA	Snatch	Participating_in_sports&Exercise&Recreation	Sports, Exercise, and Recreation	Participating in Sports, Exercise, or Recreation	Weightlifting	79	1	True	True	True	True	0.4174724281183444
video_on	action	15	meg	1	NvFXuT-Ypm4	Springboard diving	Participating_in_sports&Exercise&Recreation	Sports, Exercise, and Recreation	Participating in Sports, Exercise, or Recreation	Participating in water sports	193	1	True	True	True	True	0.4795817919075489
video_on	action	15	meg	1	wVuz9_Q_GZE	Tumbling	Participating_in_sports&Exercise&Recreation	Sports, Exercise, and Recreation	Participating in Sports, Exercise, or Recreation	Doing gymnastics	258	1	True	True	True	True	0.4504116726311622
video_on	action	15	meg	1	UqY7jFMh3Ck	Paintball	Participating_in_sports&Exercise&Recreation	Sports, Exercise, and Recreation	Participating in Sports, Exercise, or Recreation	Playing sports	141	1	True	True	True	True	0.5700202704465482
video_on	action	15	meg	1	CfbN3N93X9g	Playing badminton	Participating_in_sports&Exercise&Recreation	Sports, Exercise, and Recreation	Participating in Sports, Exercise, or Recreation	Playing racquet sports	268	1	True	True	True	True	0.784643063598196
video_on	action	15	meg	1	zwsQ5D5t-7s	Plastering	Interior_maintenance&Repair&Decoration	Household Activities	Interior Maintenance, Repair, & Decoration	Interior arrangement, decoration, & repairs	340	7	True	False	False	True	0.6228704336826922
video_on	action	15	meg	1	oaAGZDnkTkI	Slacklining	Relaxing&Leisure	Socializing, Relaxing, and Leisure	Relaxing and Leisure	Playing games	371	3	True	False	True	False	0.4002291178912855
video_on	action	15	meg	1	JYmhprave40	Doing motocross	Participating_in_sports&Exercise&Recreation	Sports, Exercise, and Recreation	Participating in Sports, Exercise, or Recreation	Playing sports	243	1	True	True	True	True	0.091323555825511
video_on	action	15	meg	1	YwZkqjn-JF4	Drinking coffee	Food&Drink_prep.&Presentation&Clean-up	Eating and drinking Activities	Food & Drink Prep., Presentation, & Clean-up	Eating and Drinking	68	5	True	False	False	True	0.6246879815880675
video_on	action	15	meg	1	wvfhEVEdViw	Tai chi	Participating_in_sports&Exercise&Recreation	Sports, Exercise, and Recreation	Participating in Sports, Exercise, or Recreation	Participating in martial arts	263	1	True	True	False	False	0.8572251377772773
video_on	action	15	meg	1	duTnib2Kh1o	Making a cake	Food&Drink_prep.&Presentation&Clean-up	Eating and drinking Activities	Food & Drink Prep., Presentation, & Clean-up	Food and drink preparation	332	5	True	False	False	True	0.403008417590172
video_on	action	15	meg	1	Cy2lgwuOHNo	Shot put	Participating_in_sports&Exercise&Recreation	Sports, Exercise, and Recreation	Participating in Sports, Exercise, or Recreation	Playing sports	169	1	True	True	False	False	0.7290350333059905
video_on	action	15	meg	1	aAGlEZYWm8M	Using the monkey bar	Arts&Entertainment	Socializing, Relaxing, and Leisure	Arts and Entertainment	Park activities	383	2	True	False	True	False	0.4273574012768222
video_on	action	15	meg	1	FVXeoNIJyRI	Bathing dog	Animals&Pets	Household Activities	Animals and Pets	Care for animals and pets (not veterinary care)	90	8	True	False	False	True	0.8332284341595368
video_on	action	15	meg	1	ARFbGZ4x4hE	Starting a campfire	Participating_in_sports&Exercise&Recreation	Sports, Exercise, and Recreation	Participating in Sports, Exercise, or Recreation	Playing sports	153	1	True	True	False	False	0.5454388483194634
video_on	action	15	meg	1	HTl-xUj_dPQ	Hula hoop	Relaxing&Leisure	Socializing, Relaxing, and Leisure	Relaxing and Leisure	Playing games	322	3	True	False	True	False	0.7296420900675002
video_on	action	15	meg	1	2nY_FVmKlEs	Skateboarding	Participating_in_sports&Exercise&Recreation	Sports, Exercise, and Recreation	Participating in Sports, Exercise, or Recreation	Playing sports	176	1	True	True	False	False	0.5546506555838278
video_on	action	15	meg	1	KfQBtytzQws	Making a lemonade	Food&Drink_prep.&Presentation&Clean-up	Eating and drinking Activities	Food & Drink Prep., Presentation, & Clean-up	Food and drink preparation	333	5	True	False	False	True	0.586003583171987
video_on	action	15	meg	1	Po5Vchcx7BQ	Playing kickball	Participating_in_sports&Exercise&Recreation	Sports, Exercise, and Recreation	Participating in Sports, Exercise, or Recreation	Playing sports	257	1	True	True	True	True	0.6828763804805931
video_on	action	15	meg	1	lXTIgmTUXio	Kneeling	Participating_in_sports&Exercise&Recreation	Sports, Exercise, and Recreation	Participating in Sports, Exercise, or Recreation	Working out	328	1	True	True	True	True	0.5956558160251006
video_on	action	15	meg	1	xvo29RemhVE	Playing squash	Participating_in_sports&Exercise&Recreation	Sports, Exercise, and Recreation	Participating in Sports, Exercise, or Recreation	Playing racquet sports	194	1	True	True	True	True	0.4823179244849598
video_on	action	15	meg	1	gBRsThIq2Ac	Playing flauta	Arts&Entertainment	Socializing, Relaxing, and Leisure	Arts and Entertainment	Playing musical instruments	149	2	True	False	True	False	0.7574184842815157
video_on	action	15	meg	1	BdbKe0KTUZM	Hand car wash	Vehicles	Household Activities	Vehicles	Vehicle repair and maintenance (by self)	318	11	True	False	False	True	0.3626749137038132
video_on	action	15	meg	1	O2W_g1H2gZU	Sumo	Participating_in_sports&Exercise&Recreation	Sports, Exercise, and Recreation	Participating in Sports, Exercise, or Recreation	Wrestling	375	1	True	True	True	True	0.4062278409983264
video_on	action	15	meg	1	YcxOfWo9OQI	Shaving	Grooming	Personal Care	Grooming	Washing, dressing and grooming oneself	190	4	True	False	False	True	0.3257455764978658
video_on	action	15	meg	1	xMEI6wR7_UQ	Painting	Interior_maintenance&Repair&Decoration	Household Activities	Interior Maintenance, Repair, & Decoration	Interior arrangement, decoration, & repairs	217	7	True	False	False	True	0.3953666263696505
video_on	action	15	meg	1	mRlBVxeEA0k	Cleaning shoes	Housework	Household Activities	Housework	Sewing, repairing, & maintaining textiles	134	6	True	False	False	True	0.4994081875775009
video_on	action	15	meg	1	_w9ThbrQCb4	Spread mulch	Lawn&Garden&Houseplants	Household Activities	Lawn, Garden, and Houseplants	Lawn, garden, and houseplant care	374	9	True	False	False	True	0.9811148291191784
video_on	action	15	meg	1	oNRacs6vv-w	Using the pommel horse	Participating_in_sports&Exercise&Recreation	Sports, Exercise, and Recreation	Participating in Sports, Exercise, or Recreation	Doing gymnastics	114	1	True	True	True	True	0.5464914624171797
video_on	action	15	meg	1	KquD2R4hP8A	Bullfighting	Participating_in_sports&Exercise&Recreation	Sports, Exercise, and Recreation	Participating in Sports, Exercise, or Recreation	Participating in rodeo competitions	288	1	True	True	True	True	0.534067174710799
video_on	action	15	meg	1	BCH7OgCoo_o	Getting a piercing	Grooming	Personal Care	Grooming	Washing, dressing and grooming	214	4	True	False	False	True	0.8933533170056762
video_on	action	15	meg	1	vy-_KHMCmvc	Having an ice cream	Food&Drink_prep.&Presentation&Clean-up	Eating and drinking Activities	Food & Drink Prep., Presentation, & Clean-up	Eating and Drinking	320	5	True	False	False	True	0.316314612980932
video_on	action	15	meg	1	tkLMob0DcUY	Rock climbing	Participating_in_sports&Exercise&Recreation	Sports, Exercise, and Recreation	Participating in Sports, Exercise, or Recreation	Climbing, spelunking, caving	188	1	True	True	True	True	0.6762663744593738
video_on	action	15	meg	1	dzwV7TPqN1M	Getting a tattoo	Grooming	Personal Care	Grooming	Washing, dressing and grooming	187	4	True	False	False	True	0.485208613492432
video_on	action	15	meg	1	NHKWZ-GwepA	Using parallel bars	Participating_in_sports&Exercise&Recreation	Sports, Exercise, and Recreation	Participating in Sports, Exercise, or Recreation	Doing gymnastics	88	1	True	True	True	True	0.516669911754434
video_on	action	15	meg	1	Jku35hsPAtw	Belly dance	Arts&Entertainment	Socializing, Relaxing, and Leisure	Arts and Entertainment	Dancing	247	2	True	False	False	True	0.5242975151631981
video_on	action	15	meg	1	hNVVsoZpENk	Braiding hair	Grooming	Personal Care	Grooming	Washing, dressing and grooming oneself	285	4	True	False	False	True	0.2284957459196448
video_on	action	15	meg	1	C5EgT-5EstY	Doing nails	Grooming	Personal Care	Grooming	Washing, dressing and grooming oneself	167	4	True	False	False	True	0.7252556445455411
video_on	action	15	meg	1	3It2UQEbazQ	Painting fence	Exterior_maintenance&Repair&Decoration	Household Activities	Exterior Maintenance, Repair, & Decoration	Painting fence	336	12	True	False	False	True	0.6771919020975474
video_on	action	15	meg	1	GyJKUoENl1M	Decorating the Christmas tree	Interior_maintenance&Repair&Decoration	Household Activities	Interior Maintenance, Repair, & Decoration	Interior arrangement, decoration, & repairs	302	7	True	False	False	True	0.6607908039004542
video_on	action	15	meg	1	EVWgsn-PJ_I	Assembling bicycle	Vehicles	Household Activities	Vehicles	Vehicle repair and maintenance (by self)	273	11	True	False	False	True	0.6128683356946567
video_on	action	15	meg	1	kSTlaBA9-OI	Croquet	Participating_in_sports&Exercise&Recreation	Sports, Exercise, and Recreation	Participating in Sports, Exercise, or Recreation	Playing sports	299	1	True	True	True	True	0.3659130529267713
video_on	action	15	meg	1	foJC3HVESkM	Baking cookies	Food&Drink_prep.&Presentation&Clean-up	Eating and drinking Activities	Food & Drink Prep., Presentation, & Clean-up	Food and drink preparation	276	5	True	False	False	True	0.5492970246268669
video_on	action	15	meg	1	_VrZk5hb698	Mowing the lawn	Lawn&Garden&Houseplants	Household Activities	Lawn, Garden, and Houseplants	Lawn, garden, and houseplant care	218	9	True	False	False	True	0.5979509192547994
video_on	action	15	meg	1	hyeKxqs_gbs	Wrapping presents	Household_management	Household Activities	Household Management	Household & personal organization and planning	179	13	True	False	False	True	0.7261935487767914
video_on	action	15	meg	1	qNhi6NRL9pk	Playing rubik cube	Relaxing&Leisure	Socializing, Relaxing, and Leisure	Relaxing and Leisure	Playing games	349	3	False	False	False	True	0.0
video_on	action	15	eeg	1	o2K9hmeqxAA	Playing polo	Participating_in_sports&Exercise&Recreation	Sports, Exercise, and Recreation	Participating in Sports, Exercise, or Recreation	Participating in equestrian sports	75	1	True	True	True	True	0.973203999999896
video_on	action	15	eeg	1	Ke29p3rcs1k	Polishing forniture	Housework	Household Activities	Housework	Interior cleaning	156	6	True	False	False	True	0.4944293000007747
video_on	action	15	eeg	1	d-yzY7PCQrg	Sumo	Participating_in_sports&Exercise&Recreation	Sports, Exercise, and Recreation	Participating in Sports, Exercise, or Recreation	Wrestling	375	1	True	True	True	True	0.8197061999999278
video_on	action	15	eeg	1	4gDyvghvC-w	Tumbling	Participating_in_sports&Exercise&Recreation	Sports, Exercise, and Recreation	Participating in Sports, Exercise, or Recreation	Doing gymnastics	258	1	True	True	False	False	0.7712467999990622
video_on	action	15	eeg	1	Z56GFgUpn6E	Hand washing clothes	Housework	Household Activities	Housework	Laundry	232	6	True	False	False	True	0.6236868999985745
video_on	action	15	eeg	1	arRlSBgsPbo	Ice fishing	Participating_in_sports&Exercise&Recreation	Sports, Exercise, and Recreation	Participating in Sports, Exercise, or Recreation	Fishing	324	1	True	True	False	False	0.005067300000519
video_on	action	15	eeg	1	8U1GOh0Q10k	Futsal	Participating_in_sports&Exercise&Recreation	Sports, Exercise, and Recreation	Participating in Sports, Exercise, or Recreation	Playing soccer	315	1	True	True	True	True	0.5017657999997027
video_on	action	15	eeg	1	kCoh0gjLh1A	Waterskiing	Participating_in_sports&Exercise&Recreation	Sports, Exercise, and Recreation	Participating in Sports, Exercise, or Recreation	Participating in water sports	386	1	True	True	True	True	0.7449374999996508
video_on	action	15	eeg	1	snYgRBgcJoQ	Disc dog	Animals&Pets	Household Activities	Animals and Pets	Walking / exercising / playing with animals	303	8	True	False	False	True	0.6947620999999344
video_on	action	15	eeg	1	D8Wo6g6-eCU	Hammer throw	Participating_in_sports&Exercise&Recreation	Sports, Exercise, and Recreation	Participating in Sports, Exercise, or Recreation	Playing sports	224	1	True	True	True	True	0.5691009000001941
video_on	action	15	eeg	1	zrZGdH6DlyM	Playing drums	Arts&Entertainment	Socializing, Relaxing, and Leisure	Arts and Entertainment	Playing musical instruments	346	2	True	False	False	True	0.5623709999999846
video_on	action	15	eeg	1	PirkT09Of3I	Playing piano	Arts&Entertainment	Socializing, Relaxing, and Leisure	Arts and Entertainment	Playing musical instruments	197	2	True	False	False	True	0.7887482000005548
video_on	action	15	eeg	1	1b_q9gR8vJM	Playing pool	Relaxing&Leisure	Socializing, Relaxing, and Leisure	Relaxing and Leisure	Playing games	348	3	True	False	True	False	0.6674566000001505
video_on	action	15	eeg	1	NX1W9ByQE_4	Ping-pong	Participating_in_sports&Exercise&Recreation	Sports, Exercise, and Recreation	Participating in Sports, Exercise, or Recreation	Playing racquet sports	119	1	True	True	True	True	0.613118499997654
video_on	action	15	eeg	1	v_H-LniZ7PI	Doing nails	Grooming	Personal Care	Grooming	Washing, dressing and grooming oneself	167	4	True	False	False	True	0.5661422000011953
video_on	action	15	eeg	1	tLkMQOiRDcI	Hand car wash	Vehicles	Household Activities	Vehicles	Vehicle repair and maintenance (by self)	318	11	True	False	False	True	0.6646800999988045
video_on	action	15	eeg	1	DdKVN9JcA2s	Throwing darts	Relaxing&Leisure	Socializing, Relaxing, and Leisure	Relaxing and Leisure	Playing games	380	3	True	False	False	True	0.7053249000018695
video_on	action	15	eeg	1	VT5r3JnGf6k	Walking the dog	Animals&Pets	Household Activities	Animals and Pets	Walking / exercising / playing with animals	221	8	True	False	False	True	0.7079047999977774
video_on	action	15	eeg	1	IC61TQ-sd8o	Cheerleading	Arts&Entertainment	Socializing, Relaxing, and Leisure	Arts and Entertainment	Dancing	140	2	True	False	False	True	0.5934245999997074
video_on	action	15	eeg	1	Ll79Ofb83UE	Swinging at the playground	Arts&Entertainment	Socializing, Relaxing, and Leisure	Arts and Entertainment	Park activities	378	2	True	False	False	True	0.7166857999982312
video_on	action	15	eeg	1	kYfYagHTVSY	Calf roping	Participating_in_sports&Exercise&Recreation	Sports, Exercise, and Recreation	Participating in Sports, Exercise, or Recreation	Participating in rodeo competitions	290	1	True	True	False	False	0.8204780999985815
video_on	action	15	eeg	1	QA_-wI7RxBk	Camel ride	Participating_in_sports&Exercise&Recreation	Sports, Exercise, and Recreation	Participating in Sports, Exercise, or Recreation	Playing sports	291	1	True	True	False	False	0.7628044999983103
video_on	action	15	eeg	1	XlUhb4zHbP4	Using the monkey bar	Arts&Entertainment	Socializing, Relaxing, and Leisure	Arts and Entertainment	Park activities	383	2	True	False	True	False	0.4611880000011297
video_on	action	15	eeg	1	gWhahIwxVpM	Bullfighting	Participating_in_sports&Exercise&Recreation	Sports, Exercise, and Recreation	Participating in Sports, Exercise, or Recreation	Participating in rodeo competitions	288	1	True	True	False	False	0.5297898999997415
video_on	action	15	eeg	1	s4yzn64z6fU	Snatch	Participating_in_sports&Exercise&Recreation	Sports, Exercise, and Recreation	Participating in Sports, Exercise, or Recreation	Weightlifting	79	1	True	True	False	False	0.6222406000015326
video_on	action	15	eeg	1	7lPDedXnBPw	Beer pong	Relaxing&Leisure	Socializing, Relaxing, and Leisure	Relaxing and Leisure	Playing games	280	3	True	False	False	True	0.6815544000019145
video_on	action	15	eeg	1	w9xyjpdzrBI	Sharpening knives	Appliances&Tools&Toys	Household Activities	Appliances, Tools, and Toys	Appliance, tool, and toy set-up, repair, & maintenance (by self)	365	10	True	False	False	True	0.6135524999990594
video_on	action	15	eeg	1	uR32CSHxdME	Playing lacrosse	Participating_in_sports&Exercise&Recreation	Sports, Exercise, and Recreation	Participating in Sports, Exercise, or Recreation	Playing racquet sports	209	1	True	True	True	True	0.6301146000005247
video_on	action	15	eeg	1	FAOtXHluR9E	Wrapping presents	Household_management	Household Activities	Household Management	Household & personal organization and planning	179	13	True	False	False	True	0.6931392000005872
video_on	action	15	eeg	1	LjOfQvsG2-Q	Arm wrestling	Participating_in_sports&Exercise&Recreation	Sports, Exercise, and Recreation	Participating in Sports, Exercise, or Recreation	Wrestling	271	1	True	True	False	False	0.688000699999975
video_on	action	15	eeg	1	PSZoN-gXUSM	Canoeing	Participating_in_sports&Exercise&Recreation	Sports, Exercise, and Recreation	Participating in Sports, Exercise, or Recreation	Boating	292	1	True	True	True	True	0.6617177000007359
video_on	action	15	eeg	1	PNRDPKTyLBQ	Making an omelette	Food&Drink_prep.&Presentation&Clean-up	Eating and drinking Activities	Food & Drink Prep., Presentation, & Clean-up	Food and drink preparation	334	5	True	False	False	True	0.5351699999991979
video_on	action	15	eeg	1	nk2Hirgb08Y	Playing blackjack	Arts&Entertainment	Socializing, Relaxing, and Leisure	Arts and Entertainment	Attending gambling establishments	343	2	True	False	False	True	0.826607499999227
video_on	action	15	eeg	1	hIXkwMcvOYk	Croquet	Participating_in_sports&Exercise&Recreation	Sports, Exercise, and Recreation	Participating in Sports, Exercise, or Recreation	Playing sports	299	1	True	True	True	True	0.6632925999983854
video_on	action	15	eeg	1	0f9ionoZDfo	Rollerblading	Participating_in_sports&Exercise&Recreation	Sports, Exercise, and Recreation	Participating in Sports, Exercise, or Recreation	Playing sports	359	1	True	True	False	False	0.6645258999997168
video_on	action	15	eeg	1	w3JDaXOECK4	Getting a haircut	Grooming	Personal Care	Grooming	Washing, dressing and grooming	208	4	True	False	False	True	0.6650270999998611
video_on	action	15	eeg	1	Y90bJMQqKjk	Welding	Appliances&Tools&Toys	Household Activities	Appliances, Tools, and Toys	Appliance, tool, and toy set-up, repair, & maintenance (by self)	388	10	True	False	False	True	0.6391833999987284
video_on	action	15	eeg	1	jRkNogj5FW4	Building sandcastles	Arts&Entertainment	Socializing, Relaxing, and Leisure	Arts and Entertainment	Beach activities	286	2	True	False	False	True	0.5054801000005682
video_on	action	15	eeg	1	jEEDUvW0xkA	Beach soccer	Participating_in_sports&Exercise&Recreation	Sports, Exercise, and Recreation	Participating in Sports, Exercise, or Recreation	Playing soccer	278	1	True	True	True	True	0.5644093999981123
video_on	action	15	eeg	1	5GaLOD1TGt4	Fixing the roof	Exterior_maintenance&Repair&Decoration	Household Activities	Exterior Maintenance, Repair, & Decoration	Exterior repair, improvements, & decoration	311	12	True	False	False	True	3.739019399999961
video_on	action	15	eeg	1	dJVLoNBhWX8	Hurling	Participating_in_sports&Exercise&Recreation	Sports, Exercise, and Recreation	Participating in Sports, Exercise, or Recreation	Playing sports	323	1	True	True	True	True	0.592709400003514
video_on	action	15	eeg	1	Ag2dQa9bn14	High jump	Participating_in_sports&Exercise&Recreation	Sports, Exercise, and Recreation	Participating in Sports, Exercise, or Recreation	Playing sports	195	1	True	True	True	True	0.5916572999994969
video_on	action	15	eeg	1	bfd5QcUp4rA	Snowboarding	Participating_in_sports&Exercise&Recreation	Sports, Exercise, and Recreation	Participating in Sports, Exercise, or Recreation	Skiing, ice skating, snowboarding	373	1	True	True	True	True	0.6838599000002432
video_on	action	15	eeg	1	uyQ8aOrvJ5I	Kayaking	Participating_in_sports&Exercise&Recreation	Sports, Exercise, and Recreation	Participating in Sports, Exercise, or Recreation	Participating in water sports	254	1	True	True	True	True	0.587860699997691
video_on	action	15	eeg	1	27eo4hL6tyU	Playing violin	Arts&Entertainment	Socializing, Relaxing, and Leisure	Arts and Entertainment	Playing musical instruments	234	2	True	False	False	True	3.744305699998222
video_on	action	15	eeg	1	kV3cvPkToNA	Spinning	Participating_in_sports&Exercise&Recreation	Sports, Exercise, and Recreation	Participating in Sports, Exercise, or Recreation	Using cardiovascular equipment	117	1	True	True	False	False	0.7360535000007076
video_on	action	15	eeg	1	NH7BPL5loEI	Hanging wallpaper	Interior_maintenance&Repair&Decoration	Household Activities	Interior Maintenance, Repair, & Decoration	Interior arrangement, decoration, & repairs	319	7	True	False	False	True	0.6539690999998129
video_on	action	15	eeg	1	gzqBmZKPit8	Playing accordion	Arts&Entertainment	Socializing, Relaxing, and Leisure	Arts and Entertainment	Playing musical instruments	267	2	True	False	False	True	0.6359845000006317
video_on	action	15	eeg	1	f1mU_ivlFQA	Chopping wood	Interior_maintenance&Repair&Decoration	Household Activities	Interior Maintenance, Repair, & Decoration	Heating and cooling	110	7	True	False	False	True	0.5407374000023992
video_on	action	15	eeg	1	vWWzgNkxffc	Playing kickball	Participating_in_sports&Exercise&Recreation	Sports, Exercise, and Recreation	Participating in Sports, Exercise, or Recreation	Playing sports	257	1	True	True	True	True	0.5281657000014093
video_on	action	15	eeg	1	3b5_bAQvdT4	Running a marathon	Participating_in_sports&Exercise&Recreation	Sports, Exercise, and Recreation	Participating in Sports, Exercise, or Recreation	Running	362	1	True	True	True	True	0.7380122000031406
video_on	action	15	eeg	1	_5dUgrIzuFA	Playing water polo	Participating_in_sports&Exercise&Recreation	Sports, Exercise, and Recreation	Participating in Sports, Exercise, or Recreation	Participating in water sports	130	1	True	True	True	True	0.6689472999969439
video_on	action	15	eeg	1	U840Qny7P-Q	Cutting the grass	Lawn&Garden&Houseplants	Household Activities	Lawn, Garden, and Houseplants	Lawn, garden, and houseplant care	301	9	True	False	False	True	0.554667000000336
video_on	action	15	eeg	1	1mK_QXlug0U	Cleaning windows	Housework	Household Activities	Housework	Interior cleaning	143	6	True	False	False	True	0.6899258000012196
video_on	action	15	eeg	1	yhZmzmt3Hzs	Baton twirling	Participating_in_sports&Exercise&Recreation	Sports, Exercise, and Recreation	Participating in Sports, Exercise, or Recreation	Playing sports	277	1	True	True	True	True	0.6455524999983027
video_on	action	15	eeg	1	56dlo0VJxjU	Waxing skis	Appliances&Tools&Toys	Household Activities	Appliances, Tools, and Toys	Appliance, tool, and toy set-up, repair, & maintenance (by self)	387	10	True	False	False	True	0.6231910999995307
video_on	action	15	eeg	1	kLOiDBPBSNQ	Kite flying	Relaxing&Leisure	Socializing, Relaxing, and Leisure	Relaxing and Leisure	Playing games	327	3	True	False	True	False	0.6695132999993803
video_on	action	15	eeg	1	IiOagPSsUrI	Preparing pasta	Food&Drink_prep.&Presentation&Clean-up	Eating and drinking Activities	Food & Drink Prep., Presentation, & Clean-up	Food and drink preparation	186	5	True	False	False	True	0.6832308000011835
video_on	action	15	eeg	1	w_RjdRkdrz8	Painting fence	Exterior_maintenance&Repair&Decoration	Household Activities	Exterior Maintenance, Repair, & Decoration	Painting fence	336	12	True	False	False	True	0.5331268000009004
video_on	action	15	eeg	1	Zb9EQoVV4UE	Clean and jerk	Participating_in_sports&Exercise&Recreation	Sports, Exercise, and Recreation	Participating in Sports, Exercise, or Recreation	Weightlifting	84	1	True	True	True	True	0.5700434999998834
video_on	action	15	eeg	1	0-mMhJOQjWE	Tug of war	Relaxing&Leisure	Socializing, Relaxing, and Leisure	Relaxing and Leisure	Playing games	382	3	True	False	False	True	0.5951934999975492
video_on	action	15	eeg	1	IcTndj5JfPE	Playing harmonica	Arts&Entertainment	Socializing, Relaxing, and Leisure	Arts and Entertainment	Playing musical instruments	100	2	True	False	False	True	0.7409915999996883
video_on	action	15	eeg	1	DeF5mG8YV2o	Carving jack-o-lanterns	Interior_maintenance&Repair&Decoration	Household Activities	Interior Maintenance, Repair, & Decoration	Interior arrangement, decoration, & repairs	295	7	True	False	False	True	0.6805633000003581
video_on	action	15	eeg	1	FeTQ8466Ftc	Washing hands	Grooming	Personal Care	Grooming	Washing, dressing and grooming oneself	173	4	True	False	False	True	0.7185658999987936
video_on	action	15	eeg	1	KTVlnIJVGWk	Hula hoop	Relaxing&Leisure	Socializing, Relaxing, and Leisure	Relaxing and Leisure	Playing games	322	3	True	False	False	True	0.7579144000010274
video_on	action	15	eeg	1	q-wFBfLlX6w	Playing beach volleyball	Participating_in_sports&Exercise&Recreation	Sports, Exercise, and Recreation	Participating in Sports, Exercise, or Recreation	Playing volleyball	341	1	True	True	True	True	0.5790220000017143
video_on	action	15	eeg	1	necdMCfAjLw	Drum corps	Arts&Entertainment	Socializing, Relaxing, and Leisure	Arts and Entertainment	Playing musical instruments	307	2	True	False	False	True	0.8051380999968387
video_on	action	15	eeg	1	wsgH_ezcd9s	Polishing shoes	Housework	Household Activities	Housework	Sewing, repairing, & maintaining textiles	227	6	True	False	False	True	0.6683503000022029
video_on	action	15	eeg	1	MAneChbQnTo	Pole vault	Participating_in_sports&Exercise&Recreation	Sports, Exercise, and Recreation	Participating in Sports, Exercise, or Recreation	Playing sports	106	1	True	True	True	True	0.5124034000000393
video_on	action	15	eeg	1	SnCGukXMUwM	Powerbocking	Participating_in_sports&Exercise&Recreation	Sports, Exercise, and Recreation	Participating in Sports, Exercise, or Recreation	Playing sports	350	1	True	True	True	True	0.5341316000012739
video_on	action	15	eeg	1	AdkfKt55WAQ	Drinking coffee	Food&Drink_prep.&Presentation&Clean-up	Eating and drinking Activities	Food & Drink Prep., Presentation, & Clean-up	Eating and Drinking	68	5	True	False	False	True	0.727823700002773
video_on	action	15	eeg	1	H1z_uDhGhLA	Tai chi	Participating_in_sports&Exercise&Recreation	Sports, Exercise, and Recreation	Participating in Sports, Exercise, or Recreation	Participating in martial arts	263	1	True	True	False	False	0.6929883000011614
video_on	action	15	eeg	1	R7gUQgf2TVc	BMX	Participating_in_sports&Exercise&Recreation	Sports, Exercise, and Recreation	Participating in Sports, Exercise, or Recreation	Biking	274	1	True	True	True	True	0.6790608000010252
video_on	action	15	eeg	1	-EkXYmoV57Y	Slacklining	Relaxing&Leisure	Socializing, Relaxing, and Leisure	Relaxing and Leisure	Playing games	371	3	True	False	False	True	0.5635970000002999
video_on	action	15	eeg	1	ApAHQiT8Bqs	Playing racquetball	Participating_in_sports&Exercise&Recreation	Sports, Exercise, and Recreation	Participating in Sports, Exercise, or Recreation	Playing racquet sports	253	1	True	True	False	False	1.01448519999758
video_on	action	15	eeg	1	6l8fBbbh5l0	Doing motocross	Participating_in_sports&Exercise&Recreation	Sports, Exercise, and Recreation	Participating in Sports, Exercise, or Recreation	Playing sports	243	1	True	True	False	False	0.6956350000000384
video_on	action	15	eeg	1	MSN2ZmZcvzs	Discus throw	Participating_in_sports&Exercise&Recreation	Sports, Exercise, and Recreation	Participating in Sports, Exercise, or Recreation	Playing sports	92	1	True	True	True	True	0.7401802999993379
video_on	action	15	eeg	1	lNXxJ_cuR2M	Playing congas	Arts&Entertainment	Socializing, Relaxing, and Leisure	Arts and Entertainment	Playing musical instruments	345	2	True	False	False	True	0.7499368000026152
video_on	action	15	eeg	1	mOhogoVrwhY	Laying tile	Interior_maintenance&Repair&Decoration	Household Activities	Interior Maintenance, Repair, & Decoration	Interior arrangement, decoration, & repairs	330	7	True	False	False	True	0.7260771000001114
video_on	action	15	eeg	1	iX3QqIeaIOY	Ballet	Arts&Entertainment	Socializing, Relaxing, and Leisure	Arts and Entertainment	Attending arts and entertainment	229	2	True	False	False	True	0.6527335999999195
video_on	action	15	eeg	1	jY1y5ucVEZM	Spread mulch	Lawn&Garden&Houseplants	Household Activities	Lawn, Garden, and Houseplants	Lawn, garden, and houseplant care	374	9	True	False	False	True	0.6121031000002404
video_on	action	15	eeg	1	6Tn1HskoRWk	Playing saxophone	Arts&Entertainment	Socializing, Relaxing, and Leisure	Arts and Entertainment	Playing musical instruments	109	2	True	False	False	True	0.6616332000012335
video_on	action	15	eeg	1	e1bPrpgG4G4	Breakdancing	Arts&Entertainment	Socializing, Relaxing, and Leisure	Arts and Entertainment	Dancing	236	2	True	False	False	True	0.7538662999977532
video_on	action	15	eeg	1	qBOQ7If8SeM	Kneeling	Participating_in_sports&Exercise&Recreation	Sports, Exercise, and Recreation	Participating in Sports, Exercise, or Recreation	Working out	328	1	True	True	False	False	0.6869117999995069
video_on	action	15	eeg	1	KAVAWWjYkTI	Playing bagpipes	Arts&Entertainment	Socializing, Relaxing, and Leisure	Arts and Entertainment	Playing musical instruments	136	2	True	False	False	True	0.7507699999987381
video_on	action	15	eeg	1	pZaGZU8QMPM	Plastering	Interior_maintenance&Repair&Decoration	Household Activities	Interior Maintenance, Repair, & Decoration	Interior arrangement, decoration, & repairs	340	7	True	False	False	True	0.6965321000025142
video_on	action	15	eeg	1	yZ4WsN-tpFc	Capoeira	Participating_in_sports&Exercise&Recreation	Sports, Exercise, and Recreation	Participating in Sports, Exercise, or Recreation	Participating in martial arts	294	1	True	True	False	False	0.9603719999977328
video_on	action	15	eeg	1	g8Drhm8giEs	Plataform diving	Participating_in_sports&Exercise&Recreation	Sports, Exercise, and Recreation	Participating in Sports, Exercise, or Recreation	Participating in water sports	233	1	True	True	False	False	0.8698565000013332
video_on	action	15	eeg	1	dHS4uyENaEU	Tango	Arts&Entertainment	Socializing, Relaxing, and Leisure	Arts and Entertainment	Dancing	73	2	True	False	False	True	0.7608506999968085
video_on	action	15	eeg	1	9BJEk2bmCuQ	Playing guitarra	Arts&Entertainment	Socializing, Relaxing, and Leisure	Arts and Entertainment	Playing musical instruments	251	2	False	False	False	True	0.0
video_on	action	15	meg	2	WxkH53v7Qv0	Beer pong	Relaxing&Leisure	Socializing, Relaxing, and Leisure	Relaxing and Leisure	Playing games	280	3	True	False	True	False	0.7072483061492676
video_on	action	15	meg	2	U3cC8mHDUaI	Vacuuming floor	Housework	Household Activities	Housework	Interior cleaning	160	6	True	False	False	True	0.6281555405585095
video_on	action	15	meg	2	4WdLVLBKvP8	Table soccer	Relaxing&Leisure	Socializing, Relaxing, and Leisure	Relaxing and Leisure	Playing games	379	3	True	False	False	True	0.436022223540931
video_on	action	15	meg	2	Gjuwoz2OTNI	Discus throw	Participating_in_sports&Exercise&Recreation	Sports, Exercise, and Recreation	Participating in Sports, Exercise, or Recreation	Playing sports	92	1	True	True	True	True	0.5584511750930687
video_on	action	15	meg	2	w6pN0QdLGWU	Carving jack-o-lanterns	Interior_maintenance&Repair&Decoration	Household Activities	Interior Maintenance, Repair, & Decoration	Interior arrangement, decoration, & repairs	295	7	True	False	False	True	0.3884855427750153
video_on	action	15	meg	2	KzE_SwIKTJU	Waxing skis	Appliances&Tools&Toys	Household Activities	Appliances, Tools, and Toys	Appliance, tool, and toy set-up, repair, & maintenance (by self)	387	10	True	False	False	True	0.4445122641482157
video_on	action	15	meg	2	JO4UTKifXsU	Zumba	Participating_in_sports&Exercise&Recreation	Sports, Exercise, and Recreation	Participating in Sports, Exercise, or Recreation	Doing aerobics	69	1	True	True	False	False	0.8288102924998384
video_on	action	15	meg	2	w2TAZokvMrQ	Hammer throw	Participating_in_sports&Exercise&Recreation	Sports, Exercise, and Recreation	Participating in Sports, Exercise, or Recreation	Playing sports	224	1	True	True	True	True	0.4315506512066349
video_on	action	15	meg	2	jvsl6XB4q8g	Fixing the roof	Exterior_maintenance&Repair&Decoration	Household Activities	Exterior Maintenance, Repair, & Decoration	Exterior repair, improvements, & decoration	311	12	True	False	False	True	0.3729323921143077
video_on	action	15	meg	2	kVMsB1O46sI	Using uneven bars	Participating_in_sports&Exercise&Recreation	Sports, Exercise, and Recreation	Participating in Sports, Exercise, or Recreation	Doing gymnastics	192	1	True	True	True	True	0.3920213239616714
video_on	action	15	meg	2	kiG9ULt6ujA	Hand washing clothes	Housework	Household Activities	Housework	Laundry	232	6	True	False	False	True	0.4128813160205027
video_on	action	15	meg	2	XqM-PfMlzGo	Longboarding	Participating_in_sports&Exercise&Recreation	Sports, Exercise, and Recreation	Participating in Sports, Exercise, or Recreation	Playing sports	331	1	True	True	True	True	0.4449711036722874
video_on	action	15	meg	2	lWMDi-r9kQs	Arm wrestling	Participating_in_sports&Exercise&Recreation	Sports, Exercise, and Recreation	Participating in Sports, Exercise, or Recreation	Wrestling	271	1	True	True	True	True	0.3737767172133317
video_on	action	15	meg	2	zVl_2XtlWMk	Playing blackjack	Arts&Entertainment	Socializing, Relaxing, and Leisure	Arts and Entertainment	Attending gambling establishments	343	2	True	False	False	True	0.5972403217310784
video_on	action	15	meg	2	4iN5oMIG1VI	Mooping floor	Housework	Household Activities	Housework	Interior cleaning	335	6	True	False	False	True	0.4140564885747153
video_on	action	15	meg	2	xLhJIFC8xkY	Playing piano	Arts&Entertainment	Socializing, Relaxing, and Leisure	Arts and Entertainment	Playing musical instruments	197	2	True	False	False	True	0.3974957021564478
video_on	action	15	meg	2	XB29y1zxDE4	Smoking a cigarette	Relaxing&Leisure	Socializing, Relaxing, and Leisure	Relaxing and Leisure	Tobacco and drug use	201	3	True	False	False	True	0.5185091941530118
video_on	action	15	meg	2	1AbrFkQxSdg	Hitting a pinata	Relaxing&Leisure	Socializing, Relaxing, and Leisure	Relaxing and Leisure	Playing games	321	3	True	False	False	True	0.5656398622959387
video_on	action	15	meg	2	Xcju1PkaBnY	Rock-paper-scissors	Relaxing&Leisure	Socializing, Relaxing, and Leisure	Relaxing and Leisure	Playing games	358	3	True	False	True	False	0.828666905144928
video_on	action	15	meg	2	WhdZAKVwKUo	Scuba diving	Participating_in_sports&Exercise&Recreation	Sports, Exercise, and Recreation	Participating in Sports, Exercise, or Recreation	Participating in water sports	364	1	True	True	False	False	0.4468236682732822
video_on	action	15	meg	2	VNJgsI7duvI	Fixing bicycle	Vehicles	Household Activities	Vehicles	Vehicle repair and maintenance (by self)	171	11	True	False	False	True	0.4851551828469382
video_on	action	15	meg	2	0pBp684uSlk	Calf roping	Participating_in_sports&Exercise&Recreation	Sports, Exercise, and Recreation	Participating in Sports, Exercise, or Recreation	Participating in rodeo competitions	290	1	True	True	True	True	0.5912165435875067
video_on	action	15	meg	2	5l6tFNltLHo	Playing field hockey	Participating_in_sports&Exercise&Recreation	Sports, Exercise, and Recreation	Participating in Sports, Exercise, or Recreation	Playing hockey	94	1	True	True	True	True	0.4233238395827357
video_on	action	15	meg	2	z2QKSaKS61U	Plataform diving	Participating_in_sports&Exercise&Recreation	Sports, Exercise, and Recreation	Participating in Sports, Exercise, or Recreation	Participating in water sports	233	1	True	True	True	True	0.3036769045284018
video_on	action	15	meg	2	7PKSzDbnyTg	Snowboarding	Participating_in_sports&Exercise&Recreation	Sports, Exercise, and Recreation	Participating in Sports, Exercise, or Recreation	Skiing, ice skating, snowboarding	373	1	True	True	True	True	0.6870400473417249
video_on	action	15	meg	2	EHQ1Q0BfNvE	Baton twirling	Participating_in_sports&Exercise&Recreation	Sports, Exercise, and Recreation	Participating in Sports, Exercise, or Recreation	Playing sports	277	1	True	True	False	False	0.8238207144895568
video_on	action	15	meg	2	viMZ9CP5Tm0	Playing harmonica	Arts&Entertainment	Socializing, Relaxing, and Leisure	Arts and Entertainment	Playing musical instruments	100	2	True	False	False	True	0.6400044676411198
video_on	action	15	meg	2	t9NFKqpe2BE	Making a sandwich	Food&Drink_prep.&Presentation&Clean-up	Eating and drinking Activities	Food & Drink Prep., Presentation, & Clean-up	Food and drink preparation	129	5	True	False	False	True	0.8220593140576966
video_on	action	15	meg	2	FLLTrq_03-U	Elliptical trainer	Participating_in_sports&Exercise&Recreation	Sports, Exercise, and Recreation	Participating in Sports, Exercise, or Recreation	Using cardiovascular equipment	308	1	True	True	True	True	0.3676026087487116
video_on	action	15	meg	2	KwJ9ZvEV0Tg	Spinning	Participating_in_sports&Exercise&Recreation	Sports, Exercise, and Recreation	Participating in Sports, Exercise, or Recreation	Using cardiovascular equipment	117	1	True	True	True	True	0.4415962181956274
video_on	action	15	meg	2	NFcYDlf0R_Q	Kite flying	Relaxing&Leisure	Socializing, Relaxing, and Leisure	Relaxing and Leisure	Playing games	327	3	True	False	False	True	0.8727028214052552
video_on	action	15	meg	2	Z3XnAnd7rU8	Ballet	Arts&Entertainment	Socializing, Relaxing, and Leisure	Arts and Entertainment	Attending arts and entertainment	229	2	True	False	True	False	0.3681547255255282
video_on	action	15	meg	2	XBA0F93aWlc	Smoking hookah	Relaxing&Leisure	Socializing, Relaxing, and Leisure	Relaxing and Leisure	Tobacco and drug use	189	3	True	False	False	True	0.6481310590606881
video_on	action	15	meg	2	KYyDAoscpTg	Mixing drinks	Food&Drink_prep.&Presentation&Clean-up	Eating and drinking Activities	Food & Drink Prep., Presentation, & Clean-up	Food and drink preparation	244	5	True	False	False	True	0.4804792458016891
video_on	action	15	meg	2	bj0MgFVdOBg	Dodgeball	Participating_in_sports&Exercise&Recreation	Sports, Exercise, and Recreation	Participating in Sports, Exercise, or Recreation	Playing sports	161	1	True	True	False	False	0.7431784599029925
video_on	action	15	meg	2	OLb8VIW9HDI	Playing polo	Participating_in_sports&Exercise&Recreation	Sports, Exercise, and Recreation	Participating in Sports, Exercise, or Recreation	Participating in equestrian sports	75	1	True	True	True	True	0.4173320594418328
video_on	action	15	meg	2	QiL3hVZTuSc	Long jump	Participating_in_sports&Exercise&Recreation	Sports, Exercise, and Recreation	Participating in Sports, Exercise, or Recreation	Playing sports	80	1	True	True	True	True	0.4116409399575786
video_on	action	15	meg	2	UwsEmRrKrHI	Canoeing	Participating_in_sports&Exercise&Recreation	Sports, Exercise, and Recreation	Participating in Sports, Exercise, or Recreation	Boating	292	1	True	True	True	True	0.675787913511158
video_on	action	15	meg	2	78ETYtxttJI	Sailing	Participating_in_sports&Exercise&Recreation	Sports, Exercise, and Recreation	Participating in Sports, Exercise, or Recreation	Participating in water sports	240	1	True	True	False	False	0.8571916304063052
video_on	action	15	meg	2	frqaoaQhN4Y	Chopping wood	Interior_maintenance&Repair&Decoration	Household Activities	Interior Maintenance, Repair, & Decoration	Heating and cooling	110	7	True	False	False	True	0.0053439711628016
video_on	action	15	meg	2	2HbahpAgnDQ	Cleaning sink	Interior_maintenance&Repair&Decoration	Household Activities	Interior Maintenance, Repair, & Decoration	Interior arrangement, decoration, & repairs	297	7	True	False	False	True	0.3934536881424719
video_on	action	15	meg	2	iRL6NZd8aoA	Swimming	Participating_in_sports&Exercise&Recreation	Sports, Exercise, and Recreation	Participating in Sports, Exercise, or Recreation	Participating in water sports	377	1	True	True	True	True	0.7076211132662138
video_on	action	15	meg	2	Q44PRZm652w	Bungee jumping	Participating_in_sports&Exercise&Recreation	Sports, Exercise, and Recreation	Participating in Sports, Exercise, or Recreation	Playing sports	154	1	False	True	False	False	0.0
video_on	action	15	meg	2	PukuGST_z00	Hopscotch	Relaxing&Leisure	Socializing, Relaxing, and Leisure	Relaxing and Leisure	Playing games	241	3	True	False	True	False	0.0051302485371707
video_on	action	15	meg	2	RwOb-AA7by4	Playing drums	Arts&Entertainment	Socializing, Relaxing, and Leisure	Arts and Entertainment	Playing musical instruments	346	2	True	False	False	True	0.6186195269401651
video_on	action	15	meg	2	b63H38hGneY	Riding bumper cars	Relaxing&Leisure	Socializing, Relaxing, and Leisure	Relaxing and Leisure	Playing games	356	3	True	False	False	True	0.7942267723847181
video_on	action	15	meg	2	0vdCs_weBLI	Rope skipping	Participating_in_sports&Exercise&Recreation	Sports, Exercise, and Recreation	Participating in Sports, Exercise, or Recreation	Working out	361	1	False	True	False	False	0.0
video_on	action	15	meg	2	U6adubZsbuU	Surfing	Participating_in_sports&Exercise&Recreation	Sports, Exercise, and Recreation	Participating in Sports, Exercise, or Recreation	Participating in water sports	376	1	True	True	False	False	0.8106622835475719
video_on	action	15	meg	2	ZzA5w5UP4bc	Waterskiing	Participating_in_sports&Exercise&Recreation	Sports, Exercise, and Recreation	Participating in Sports, Exercise, or Recreation	Participating in water sports	386	1	True	True	True	True	0.3249169485352468
video_on	action	15	meg	2	42Lv4gLUMu0	Volleyball	Participating_in_sports&Exercise&Recreation	Sports, Exercise, and Recreation	Participating in Sports, Exercise, or Recreation	Playing volleyball	123	1	True	True	True	True	0.3950046865065815
video_on	action	15	meg	2	H55geqxFoP4	Powerbocking	Participating_in_sports&Exercise&Recreation	Sports, Exercise, and Recreation	Participating in Sports, Exercise, or Recreation	Playing sports	350	1	True	True	True	True	0.3944773229159182
video_on	action	15	meg	2	2D0Pfsde4Ig	Washing dishes	Food&Drink_prep.&Presentation&Clean-up	Eating and drinking Activities	Food & Drink Prep., Presentation, & Clean-up	Kitchen and food clean-up	213	5	True	False	False	True	0.6432815478619887
video_on	action	15	meg	2	D49wh0W32B8	Rollerblading	Participating_in_sports&Exercise&Recreation	Sports, Exercise, and Recreation	Participating in Sports, Exercise, or Recreation	Playing sports	359	1	True	True	True	True	0.5233946276421193
video_on	action	15	meg	2	fdnuJLfor5Y	Blow-drying hair	Grooming	Personal Care	Grooming	Washing, dressing and grooming oneself	281	4	True	False	False	True	0.6983072745788377
video_on	action	15	meg	2	xtlFNQSKuqw	Windsurfing	Participating_in_sports&Exercise&Recreation	Sports, Exercise, and Recreation	Participating in Sports, Exercise, or Recreation	Participating in water sports	237	1	True	True	True	True	0.4115404178737663
video_on	action	15	meg	2	Rwgmy1FrId8	Playing violin	Arts&Entertainment	Socializing, Relaxing, and Leisure	Arts and Entertainment	Playing musical instruments	234	2	True	False	False	True	0.3386000262544257
video_on	action	15	meg	2	cA1buCeQCpc	Painting furniture	Interior_maintenance&Repair&Decoration	Household Activities	Interior Maintenance, Repair, & Decoration	Building and repairing furniture	337	7	True	False	False	True	0.7387216791103128
video_on	action	15	meg	2	DEXAtol1IUs	Horseback riding	Participating_in_sports&Exercise&Recreation	Sports, Exercise, and Recreation	Participating in Sports, Exercise, or Recreation	Participating in equestrian sports	175	1	True	True	True	True	0.547537133548758
video_on	action	15	meg	2	ZJveR9vyMQQ	Playing congas	Arts&Entertainment	Socializing, Relaxing, and Leisure	Arts and Entertainment	Playing musical instruments	345	2	True	False	False	True	0.4375786555174272
video_on	action	15	meg	2	nO67ACR9DGA	Polishing shoes	Housework	Household Activities	Housework	Sewing, repairing, & maintaining textiles	227	6	True	False	False	True	0.6031152789073531
video_on	action	15	meg	2	N1vexeyIfFA	Raking leaves	Lawn&Garden&Houseplants	Household Activities	Lawn, Garden, and Houseplants	Lawn, garden, and houseplant care	354	9	True	False	False	True	0.4307799819071078
video_on	action	15	meg	2	i5LF3iztZAg	Throwing darts	Relaxing&Leisure	Socializing, Relaxing, and Leisure	Relaxing and Leisure	Playing games	380	3	True	False	False	True	0.7488019609445473
video_on	action	15	meg	2	HbvCMDioMgA	Shuffleboard	Relaxing&Leisure	Socializing, Relaxing, and Leisure	Relaxing and Leisure	Playing games	368	3	True	False	True	False	0.9729930675966898
video_on	action	15	meg	2	mY-aPShmvEY	Doing fencing	Participating_in_sports&Exercise&Recreation	Sports, Exercise, and Recreation	Participating in Sports, Exercise, or Recreation	Fencing	309	1	True	True	True	True	0.5971859854762442
video_on	action	15	meg	2	adxq4QuaB_w	Brushing hair	Grooming	Personal Care	Grooming	Washing, dressing and grooming oneself	125	4	True	False	False	True	0.7252773790678475
video_on	action	15	meg	2	LJQOoNAOEyU	Using the balance beam	Participating_in_sports&Exercise&Recreation	Sports, Exercise, and Recreation	Participating in Sports, Exercise, or Recreation	Doing gymnastics	180	1	True	True	True	True	0.5494603352854028
video_on	action	15	meg	2	g2PLEEmGaHE	Kayaking	Participating_in_sports&Exercise&Recreation	Sports, Exercise, and Recreation	Participating in Sports, Exercise, or Recreation	Participating in water sports	254	1	True	True	False	False	0.3802810694032814
video_on	action	15	meg	2	IuVE3FuRTeY	Doing crunches	Participating_in_sports&Exercise&Recreation	Sports, Exercise, and Recreation	Participating in Sports, Exercise, or Recreation	Working out	305	1	True	True	True	True	0.4377944912121165
video_on	action	15	meg	2	Dam_Xnp9O7c	Doing kickboxing	Participating_in_sports&Exercise&Recreation	Sports, Exercise, and Recreation	Participating in Sports, Exercise, or Recreation	Participating in martial arts	70	1	True	True	True	True	0.4459201770077925
video_on	action	15	meg	2	jMH804Pkct0	Ping-pong	Participating_in_sports&Exercise&Recreation	Sports, Exercise, and Recreation	Participating in Sports, Exercise, or Recreation	Playing racquet sports	119	1	True	True	True	True	0.3900455971743213
video_on	action	15	meg	2	apjHZaW_n1w	BMX	Participating_in_sports&Exercise&Recreation	Sports, Exercise, and Recreation	Participating in Sports, Exercise, or Recreation	Biking	274	1	True	True	True	True	0.4063232313055778
video_on	action	15	meg	2	PRwxfti5mbY	Fun sliding down	Arts&Entertainment	Socializing, Relaxing, and Leisure	Arts and Entertainment	Park activities	313	2	True	False	True	False	0.6325169310293859
video_on	action	15	meg	2	49QjwSKwecs	Brushing teeth	Grooming	Personal Care	Grooming	Washing, dressing and grooming oneself	148	4	False	False	False	True	0.0
video_on	action	15	meg	2	6q0GIcXTcEs	Playing saxophone	Arts&Entertainment	Socializing, Relaxing, and Leisure	Arts and Entertainment	Playing musical instruments	109	2	True	False	True	False	0.005408570941654
video_on	action	15	meg	2	kodhYM1v9y8	Cheerleading	Arts&Entertainment	Socializing, Relaxing, and Leisure	Arts and Entertainment	Dancing	140	2	True	False	True	False	0.4381579404143849
video_on	action	15	meg	2	PjkctMs9w90	Knitting	Housework	Household Activities	Housework	Sewing, repairing, & maintaining textiles	329	6	True	False	False	True	0.4310999621084193
video_on	action	15	meg	2	Q7R3ajucvyE	Putting in contact lenses	Grooming	Personal Care	Grooming	Washing, dressing and grooming oneself	351	4	True	False	False	True	0.3751961010711966
video_on	action	15	meg	2	ZC7ihNBK4fE	Polishing forniture	Housework	Household Activities	Housework	Interior cleaning	156	6	True	False	False	True	0.5351795586902881
video_on	action	15	meg	2	wagxwsznXCw	Laying tile	Interior_maintenance&Repair&Decoration	Household Activities	Interior Maintenance, Repair, & Decoration	Interior arrangement, decoration, & repairs	330	7	True	False	False	True	0.679459233477246
video_on	action	15	meg	2	3llItEST1Ik	Preparing salad	Food&Drink_prep.&Presentation&Clean-up	Eating and drinking Activities	Food & Drink Prep., Presentation, & Clean-up	Food and drink preparation	96	5	True	False	False	True	0.3836067503725644
video_on	action	15	meg	2	SBp3Zh8o-5w	Playing pool	Relaxing&Leisure	Socializing, Relaxing, and Leisure	Relaxing and Leisure	Playing games	348	3	True	False	True	False	0.3438679266546387
video_on	action	15	meg	2	MK6g5kY_C_U	Using the rowing machine	Participating_in_sports&Exercise&Recreation	Sports, Exercise, and Recreation	Participating in Sports, Exercise, or Recreation	Using cardiovascular equipment	384	1	True	True	True	True	0.5539035320107359
video_on	action	15	meg	2	wW_EiTEBnfI	Playing racquetball	Participating_in_sports&Exercise&Recreation	Sports, Exercise, and Recreation	Participating in Sports, Exercise, or Recreation	Playing racquet sports	253	1	True	True	False	False	0.8902214353438467
video_on	action	15	meg	2	ICYKhVcazyE	Tango	Arts&Entertainment	Socializing, Relaxing, and Leisure	Arts and Entertainment	Dancing	73	2	True	False	False	True	0.5283666972973151
video_on	action	15	meg	2	BsrgW0NcjL8	Playing lacrosse	Participating_in_sports&Exercise&Recreation	Sports, Exercise, and Recreation	Participating in Sports, Exercise, or Recreation	Playing racquet sports	209	1	True	True	True	True	0.3603982244094368
video_on	action	15	meg	2	MuL3zB9Simw	Playing bagpipes	Arts&Entertainment	Socializing, Relaxing, and Leisure	Arts and Entertainment	Playing musical instruments	136	2	True	False	False	True	0.632593907386763
video_on	action	15	meg	2	jhN7dB1PMCk	Doing karate	Participating_in_sports&Exercise&Recreation	Sports, Exercise, and Recreation	Participating in Sports, Exercise, or Recreation	Participating in martial arts	99	1	True	True	True	True	0.3948449982854072
video_on	action	15	meg	2	QQuLl7MhO_o	Playing guitarra	Arts&Entertainment	Socializing, Relaxing, and Leisure	Arts and Entertainment	Playing musical instruments	251	2	True	False	False	True	0.6408816963812569
video_on	action	15	meg	2	Oz6fL19zhos	Ironing clothes	Housework	Household Activities	Housework	Laundry	83	6	True	False	False	True	0.4729895961208967
video_on	action	15	meg	2	jHGCOXOONb0	Shoveling snow	Exterior_maintenance&Repair&Decoration	Household Activities	Exterior Maintenance, Repair, & Decoration	Exterior cleaning	183	12	False	False	False	True	0.0
video_on	action	15	eeg	2	PeFw3HZROfA	Paintball	Participating_in_sports&Exercise&Recreation	Sports, Exercise, and Recreation	Participating in Sports, Exercise, or Recreation	Playing sports	141	1	True	True	False	False	0.6236849999986589
video_on	action	15	eeg	2	ns26AzbKEpk	Longboarding	Participating_in_sports&Exercise&Recreation	Sports, Exercise, and Recreation	Participating in Sports, Exercise, or Recreation	Playing sports	331	1	True	True	False	False	0.7316528000010294
video_on	action	15	eeg	2	1nzD6uSkTxQ	Using the balance beam	Participating_in_sports&Exercise&Recreation	Sports, Exercise, and Recreation	Participating in Sports, Exercise, or Recreation	Doing gymnastics	180	1	True	True	True	True	0.6034210999969218
video_on	action	15	eeg	2	HNuVuE8kp4U	Ironing clothes	Housework	Household Activities	Housework	Laundry	83	6	True	False	False	True	0.5669224000012036
video_on	action	15	eeg	2	lZCHP-pDjJg	Playing field hockey	Participating_in_sports&Exercise&Recreation	Sports, Exercise, and Recreation	Participating in Sports, Exercise, or Recreation	Playing hockey	94	1	True	True	True	True	0.6897318000010273
video_on	action	15	eeg	2	JukMa6-V1pE	Swimming	Participating_in_sports&Exercise&Recreation	Sports, Exercise, and Recreation	Participating in Sports, Exercise, or Recreation	Participating in water sports	377	1	True	True	True	True	0.5916620000025432
video_on	action	15	eeg	2	_NL93lygv2c	Using parallel bars	Participating_in_sports&Exercise&Recreation	Sports, Exercise, and Recreation	Participating in Sports, Exercise, or Recreation	Doing gymnastics	88	1	True	True	True	True	0.6315670000003593
video_on	action	15	eeg	2	DqT3NrqisLk	Cleaning shoes	Housework	Household Activities	Housework	Sewing, repairing, & maintaining textiles	134	6	True	False	False	True	0.5926534000027459
video_on	action	15	eeg	2	ubLA5maDVgA	Grooming horse	Animals&Pets	Household Activities	Animals and Pets	Walking / exercising / playing with animals	95	8	True	False	False	True	0.7591194999986328
video_on	action	15	eeg	2	75qwD6Am5V8	Putting on shoes	Grooming	Personal Care	Grooming	Washing, dressing and grooming oneself	352	4	True	False	False	True	0.619513999998162
video_on	action	15	eeg	2	jbwe_tkjeHM	Dodgeball	Participating_in_sports&Exercise&Recreation	Sports, Exercise, and Recreation	Participating in Sports, Exercise, or Recreation	Playing sports	161	1	True	True	True	True	0.6639242000019294
video_on	action	15	eeg	2	VXL7Vn_nx6E	Playing badminton	Participating_in_sports&Exercise&Recreation	Sports, Exercise, and Recreation	Participating in Sports, Exercise, or Recreation	Playing racquet sports	268	1	True	True	True	True	0.8311355999976513
video_on	action	15	eeg	2	J8gX9h1vX68	Fixing bicycle	Vehicles	Household Activities	Vehicles	Vehicle repair and maintenance (by self)	171	11	True	False	False	True	0.8392138999988674
video_on	action	15	eeg	2	wiB2XdvBqMc	Surfing	Participating_in_sports&Exercise&Recreation	Sports, Exercise, and Recreation	Participating in Sports, Exercise, or Recreation	Participating in water sports	376	1	True	True	True	True	0.8094278999997186
video_on	action	15	eeg	2	qaU3pNFFErQ	Rock-paper-scissors	Relaxing&Leisure	Socializing, Relaxing, and Leisure	Relaxing and Leisure	Playing games	358	3	True	False	False	True	0.5395781999977771
video_on	action	15	eeg	2	EtI5BZPvGc4	Smoking hookah	Relaxing&Leisure	Socializing, Relaxing, and Leisure	Relaxing and Leisure	Tobacco and drug use	189	3	True	False	False	True	0.6458540999992692
video_on	action	15	eeg	2	lOHPPIv3wtQ	Putting in contact lenses	Grooming	Personal Care	Grooming	Washing, dressing and grooming oneself	351	4	True	False	False	True	0.6459806999991997
video_on	action	15	eeg	2	fkiA1Ze3kPY	Making a cake	Food&Drink_prep.&Presentation&Clean-up	Eating and drinking Activities	Food & Drink Prep., Presentation, & Clean-up	Food and drink preparation	332	5	True	False	False	True	0.5834198000011384
video_on	action	15	eeg	2	r4Hmjx7yj44	Elliptical trainer	Participating_in_sports&Exercise&Recreation	Sports, Exercise, and Recreation	Participating in Sports, Exercise, or Recreation	Using cardiovascular equipment	308	1	True	True	False	False	0.7997884999967937
video_on	action	15	eeg	2	mYX0yhUlD2g	Scuba diving	Participating_in_sports&Exercise&Recreation	Sports, Exercise, and Recreation	Participating in Sports, Exercise, or Recreation	Participating in water sports	364	1	True	True	False	False	0.7640485999982047
video_on	action	15	eeg	2	KKNcIkXDD5o	Getting a tattoo	Grooming	Personal Care	Grooming	Washing, dressing and grooming	187	4	True	False	False	True	0.9261607000007644
video_on	action	15	eeg	2	ItYhyEMt0qg	Using the rowing machine	Participating_in_sports&Exercise&Recreation	Sports, Exercise, and Recreation	Participating in Sports, Exercise, or Recreation	Using cardiovascular equipment	384	1	True	True	False	False	0.8133162999984052
video_on	action	15	eeg	2	SUphd7ZOCyY	Painting	Interior_maintenance&Repair&Decoration	Household Activities	Interior Maintenance, Repair, & Decoration	Interior arrangement, decoration, & repairs	217	7	True	False	False	True	0.6350969999984954
video_on	action	15	eeg	2	WCqddipqpCg	Grooming dog	Animals&Pets	Household Activities	Animals and Pets	Care for animals and pets (not veterinary care)	317	8	True	False	False	True	0.7091424999998708
video_on	action	15	eeg	2	BL7tvYnPsLs	Skateboarding	Participating_in_sports&Exercise&Recreation	Sports, Exercise, and Recreation	Participating in Sports, Exercise, or Recreation	Playing sports	176	1	True	True	False	False	0.5472659000006388
video_on	action	15	eeg	2	zoLXkjA6Aa8	Shuffleboard	Relaxing&Leisure	Socializing, Relaxing, and Leisure	Relaxing and Leisure	Playing games	368	3	True	False	False	True	0.7451227999990806
video_on	action	15	eeg	2	GWX8lWM6CfM	Preparing salad	Food&Drink_prep.&Presentation&Clean-up	Eating and drinking Activities	Food & Drink Prep., Presentation, & Clean-up	Food and drink preparation	96	5	True	False	False	True	0.8003676000007545
video_on	action	15	eeg	2	EzTRTc-hQFA	Mooping floor	Housework	Household Activities	Housework	Interior cleaning	335	6	True	False	False	True	0.6863133999977435
video_on	action	15	eeg	2	6f8y8yTXTaA	Making a sandwich	Food&Drink_prep.&Presentation&Clean-up	Eating and drinking Activities	Food & Drink Prep., Presentation, & Clean-up	Food and drink preparation	129	5	True	False	False	True	0.9402120999984618
video_on	action	15	eeg	2	tUQN-rqI6RI	Doing karate	Participating_in_sports&Exercise&Recreation	Sports, Exercise, and Recreation	Participating in Sports, Exercise, or Recreation	Participating in martial arts	99	1	True	True	True	True	0.6870082999994338
video_on	action	15	eeg	2	SVKImikDEoY	Vacuuming floor	Housework	Household Activities	Housework	Interior cleaning	160	6	True	False	False	True	0.7082090000003518
video_on	action	15	eeg	2	W0tuXxKk5ck	Mowing the lawn	Lawn&Garden&Houseplants	Household Activities	Lawn, Garden, and Houseplants	Lawn, garden, and houseplant care	218	9	True	False	False	True	0.589093700000376
video_on	action	15	eeg	2	fFv9tXyroow	Getting a piercing	Grooming	Personal Care	Grooming	Washing, dressing and grooming	214	4	True	False	False	True	0.7045121000010113
video_on	action	15	eeg	2	MxdMOjHG-tU	Baking cookies	Food&Drink_prep.&Presentation&Clean-up	Eating and drinking Activities	Food & Drink Prep., Presentation, & Clean-up	Food and drink preparation	276	5	True	False	False	True	0.5903777999992599
video_on	action	15	eeg	2	rYa9daeEyRA	Having an ice cream	Food&Drink_prep.&Presentation&Clean-up	Eating and drinking Activities	Food & Drink Prep., Presentation, & Clean-up	Eating and Drinking	320	5	True	False	False	True	0.7410473999989335
video_on	action	15	eeg	2	xYi1Lg82aTM	Mixing drinks	Food&Drink_prep.&Presentation&Clean-up	Eating and drinking Activities	Food & Drink Prep., Presentation, & Clean-up	Food and drink preparation	244	5	True	False	False	True	0.8417140999990806
video_on	action	15	eeg	2	_Wc0Fhulr2A	Knitting	Housework	Household Activities	Housework	Sewing, repairing, & maintaining textiles	329	6	True	False	False	True	0.5587530999982846
video_on	action	15	eeg	2	uLkJZuYiPvA	Rope skipping	Participating_in_sports&Exercise&Recreation	Sports, Exercise, and Recreation	Participating in Sports, Exercise, or Recreation	Working out	361	1	True	True	True	True	0.5625995000009425
video_on	action	15	eeg	2	v5bM83eQKHQ	Painting furniture	Interior_maintenance&Repair&Decoration	Household Activities	Interior Maintenance, Repair, & Decoration	Building and repairing furniture	337	7	True	False	False	True	0.6417614000019967
video_on	action	15	eeg	2	diRd9DY3uA8	Assembling bicycle	Vehicles	Household Activities	Vehicles	Vehicle repair and maintenance (by self)	273	11	True	False	False	True	0.6217542000013054
video_on	action	15	eeg	2	pPpmgHZdn8Y	Doing kickboxing	Participating_in_sports&Exercise&Recreation	Sports, Exercise, and Recreation	Participating in Sports, Exercise, or Recreation	Participating in martial arts	70	1	True	True	True	True	0.7742146000018693
video_on	action	15	eeg	2	l9tP0Gar6eM	Doing crunches	Participating_in_sports&Exercise&Recreation	Sports, Exercise, and Recreation	Participating in Sports, Exercise, or Recreation	Working out	305	1	True	True	True	True	0.6866340999986278
video_on	action	15	eeg	2	VeJ8TxgbQ0A	Bathing dog	Animals&Pets	Household Activities	Animals and Pets	Care for animals and pets (not veterinary care)	90	8	True	False	False	True	0.6515744000025734
video_on	action	15	eeg	2	Sxx8o8Qf8tk	Playing flauta	Arts&Entertainment	Socializing, Relaxing, and Leisure	Arts and Entertainment	Playing musical instruments	149	2	True	False	False	True	0.5930363000006764
video_on	action	15	eeg	2	to5dTCOa_bE	Snow tubing	Participating_in_sports&Exercise&Recreation	Sports, Exercise, and Recreation	Participating in Sports, Exercise, or Recreation	Skiing, ice skating, snowboarding	372	1	True	True	False	False	0.6199632999996538
video_on	action	15	eeg	2	W3IPoJ418OE	Shoveling snow	Exterior_maintenance&Repair&Decoration	Household Activities	Exterior Maintenance, Repair, & Decoration	Exterior cleaning	183	12	True	False	False	True	0.7035507000000507
video_on	action	15	eeg	2	_Mxs1Bk5V0Q	Making a lemonade	Food&Drink_prep.&Presentation&Clean-up	Eating and drinking Activities	Food & Drink Prep., Presentation, & Clean-up	Food and drink preparation	333	5	False	False	False	True	0.0
video_on	action	15	eeg	2	jXNizXBSx4o	Braiding hair	Grooming	Personal Care	Grooming	Washing, dressing and grooming oneself	285	4	True	False	False	True	0.0051056000011158
video_on	action	15	eeg	2	s6rTMIXg2xc	Brushing hair	Grooming	Personal Care	Grooming	Washing, dressing and grooming oneself	125	4	True	False	False	True	0.7509460000001127
video_on	action	15	eeg	2	1vmyFQGNjxM	Table soccer	Relaxing&Leisure	Socializing, Relaxing, and Leisure	Relaxing and Leisure	Playing games	379	3	True	False	False	True	0.6259506000023976
video_on	action	15	eeg	2	Mv7F6Q6WLco	Putting on makeup	Grooming	Personal Care	Grooming	Washing, dressing and grooming oneself	76	4	True	False	False	True	0.5660940000016126
video_on	action	15	eeg	2	Y4s9BDwkess	Triple jump	Participating_in_sports&Exercise&Recreation	Sports, Exercise, and Recreation	Participating in Sports, Exercise, or Recreation	Playing sports	155	1	True	True	True	True	0.5436307000018132
video_on	action	15	eeg	2	zIypVHh_ny0	Brushing teeth	Grooming	Personal Care	Grooming	Washing, dressing and grooming oneself	148	4	True	False	False	True	0.6151960999995936
video_on	action	15	eeg	2	i1wgVf2nXXw	Playing rubik cube	Relaxing&Leisure	Socializing, Relaxing, and Leisure	Relaxing and Leisure	Playing games	349	3	True	False	False	True	0.6968874999984109
video_on	action	15	eeg	2	Lm9orszqcYQ	Cricket	Participating_in_sports&Exercise&Recreation	Sports, Exercise, and Recreation	Participating in Sports, Exercise, or Recreation	Playing sports	82	1	True	True	True	True	1.0678569000010611
video_on	action	15	eeg	2	aNa9LJ7ll08	Rafting	Participating_in_sports&Exercise&Recreation	Sports, Exercise, and Recreation	Participating in Sports, Exercise, or Recreation	Boating	353	1	True	True	True	True	0.8259190999997372
video_on	action	15	eeg	2	pJTKs0_nmuI	Bungee jumping	Participating_in_sports&Exercise&Recreation	Sports, Exercise, and Recreation	Participating in Sports, Exercise, or Recreation	Playing sports	154	1	True	True	False	False	0.97191130000283
video_on	action	15	eeg	2	8Zy0QI64RBY	Javelin throw	Participating_in_sports&Exercise&Recreation	Sports, Exercise, and Recreation	Participating in Sports, Exercise, or Recreation	Playing sports	116	1	True	True	True	True	0.971751499997481
video_on	action	15	eeg	2	eq8eKDkQ0fw	Washing dishes	Food&Drink_prep.&Presentation&Clean-up	Eating and drinking Activities	Food & Drink Prep., Presentation, & Clean-up	Kitchen and food clean-up	213	5	True	False	False	True	0.6629579000000376
video_on	action	15	eeg	2	0rFwtCkqXeA	Cleaning sink	Interior_maintenance&Repair&Decoration	Household Activities	Interior Maintenance, Repair, & Decoration	Interior arrangement, decoration, & repairs	297	7	True	False	False	True	0.69837020000341
video_on	action	15	eeg	2	U0FWM_YWKSU	Zumba	Participating_in_sports&Exercise&Recreation	Sports, Exercise, and Recreation	Participating in Sports, Exercise, or Recreation	Doing aerobics	69	1	True	True	False	False	0.55138739999893
video_on	action	15	eeg	2	fuB6OAYnOCU	Volleyball	Participating_in_sports&Exercise&Recreation	Sports, Exercise, and Recreation	Participating in Sports, Exercise, or Recreation	Playing volleyball	123	1	True	True	True	True	0.5885834000000614
video_on	action	15	eeg	2	1e3Do22UA5E	Hitting a pinata	Relaxing&Leisure	Socializing, Relaxing, and Leisure	Relaxing and Leisure	Playing games	321	3	True	False	False	True	0.5842516999982763
video_on	action	15	eeg	2	8fxy10TcFI4	Belly dance	Arts&Entertainment	Socializing, Relaxing, and Leisure	Arts and Entertainment	Dancing	247	2	True	False	False	True	0.6227085999998963
video_on	action	15	eeg	2	A5XbvBjVwQo	Trimming branches or hedges	Lawn&Garden&Houseplants	Household Activities	Lawn, Garden, and Houseplants	Lawn, garden, and houseplant care	381	9	True	False	False	True	0.7065617000007478
video_on	action	15	eeg	2	pnzrCI9J-lE	Wakeboarding	Participating_in_sports&Exercise&Recreation	Sports, Exercise, and Recreation	Participating in Sports, Exercise, or Recreation	Participating in water sports	385	1	True	True	True	True	0.5858711000000767
video_on	action	15	eeg	2	cXQ6n_eziJE	Playing squash	Participating_in_sports&Exercise&Recreation	Sports, Exercise, and Recreation	Participating in Sports, Exercise, or Recreation	Playing racquet sports	194	1	True	True	True	True	0.5961437999976624
video_on	action	15	eeg	2	FQRW5a9Au40	Shaving	Grooming	Personal Care	Grooming	Washing, dressing and grooming oneself	190	4	True	False	False	True	0.5661041999992449
video_on	action	15	eeg	2	ooUAXYgk3i4	Starting a campfire	Participating_in_sports&Exercise&Recreation	Sports, Exercise, and Recreation	Participating in Sports, Exercise, or Recreation	Playing sports	153	1	True	True	False	False	0.463703199999145
video_on	action	15	eeg	2	Pk0t6bkQsOw	Decorating the Christmas tree	Interior_maintenance&Repair&Decoration	Household Activities	Interior Maintenance, Repair, & Decoration	Interior arrangement, decoration, & repairs	302	7	True	False	False	True	2.702636199999688
video_on	action	15	eeg	2	416GlXTCgmk	Doing step aerobics	Participating_in_sports&Exercise&Recreation	Sports, Exercise, and Recreation	Participating in Sports, Exercise, or Recreation	Doing aerobics	230	1	True	True	False	False	0.6868708000001789
video_on	action	15	eeg	2	1woU02dH9-w	Hopscotch	Relaxing&Leisure	Socializing, Relaxing, and Leisure	Relaxing and Leisure	Playing games	241	3	True	False	False	True	0.8405514999976731
video_on	action	15	eeg	2	3RjPvPnpYT4	Playing ice hockey	Participating_in_sports&Exercise&Recreation	Sports, Exercise, and Recreation	Participating in Sports, Exercise, or Recreation	Playing hockey	347	1	True	True	True	True	0.7890282000007574
video_on	action	15	eeg	2	w7-QPdX7niM	Raking leaves	Lawn&Garden&Houseplants	Household Activities	Lawn, Garden, and Houseplants	Lawn, garden, and houseplant care	354	9	True	False	False	True	0.7150698000004923
video_on	action	15	eeg	2	5UzI-dwphcc	Long jump	Participating_in_sports&Exercise&Recreation	Sports, Exercise, and Recreation	Participating in Sports, Exercise, or Recreation	Playing sports	80	1	True	True	True	True	0.9808947000019544
video_on	action	15	eeg	2	RFdQYrMBVoQ	Riding bumper cars	Relaxing&Leisure	Socializing, Relaxing, and Leisure	Relaxing and Leisure	Playing games	356	3	True	False	False	True	0.6837530999982846
video_on	action	15	eeg	2	9tXtCtlcY2Y	Windsurfing	Participating_in_sports&Exercise&Recreation	Sports, Exercise, and Recreation	Participating in Sports, Exercise, or Recreation	Participating in water sports	237	1	True	True	False	False	0.797038299999258
video_on	action	15	eeg	2	2MMt2nz4KiQ	Shot put	Participating_in_sports&Exercise&Recreation	Sports, Exercise, and Recreation	Participating in Sports, Exercise, or Recreation	Playing sports	169	1	True	True	True	True	0.8830311999990954
video_on	action	15	eeg	2	j3RDDaWgWmo	Rock climbing	Participating_in_sports&Exercise&Recreation	Sports, Exercise, and Recreation	Participating in Sports, Exercise, or Recreation	Climbing, spelunking, caving	188	1	True	True	False	False	0.9711150000002816
video_on	action	15	eeg	2	8-rrZbBq6-s	Fun sliding down	Arts&Entertainment	Socializing, Relaxing, and Leisure	Arts and Entertainment	Park activities	313	2	True	False	False	True	2.4812576999975136
video_on	action	15	eeg	2	R2t-48-W0zw	Archery	Participating_in_sports&Exercise&Recreation	Sports, Exercise, and Recreation	Participating in Sports, Exercise, or Recreation	Playing sports	250	1	True	True	True	True	0.7226130999988527
video_on	action	15	eeg	2	ZX9ObYq3pDM	Sailing	Participating_in_sports&Exercise&Recreation	Sports, Exercise, and Recreation	Participating in Sports, Exercise, or Recreation	Participating in water sports	240	1	True	True	False	False	0.674067500000092
video_on	action	15	eeg	2	vW9kJWR8Ov8	Doing fencing	Participating_in_sports&Exercise&Recreation	Sports, Exercise, and Recreation	Participating in Sports, Exercise, or Recreation	Fencing	309	1	True	True	True	True	0.6749303000033251
video_on	action	15	eeg	2	FHYaO9dpQAc	Blow-drying hair	Grooming	Personal Care	Grooming	Washing, dressing and grooming oneself	281	4	False	False	False	True	0.0
video_on	action	15	eeg	2	35fkuK8eQkg	Skiing	Participating_in_sports&Exercise&Recreation	Sports, Exercise, and Recreation	Participating in Sports, Exercise, or Recreation	Skiing, ice skating, snowboarding	369	1	True	True	False	False	0.8983632999988913
video_on	action	15	eeg	2	0xJq6pqnCNo	Horseback riding	Participating_in_sports&Exercise&Recreation	Sports, Exercise, and Recreation	Participating in Sports, Exercise, or Recreation	Participating in equestrian sports	175	1	True	True	False	False	0.6990819000020565
video_on	action	15	eeg	2	PiZg4vt6AFM	Springboard diving	Participating_in_sports&Exercise&Recreation	Sports, Exercise, and Recreation	Participating in Sports, Exercise, or Recreation	Participating in water sports	193	1	True	True	True	True	0.7756918999984919
video_on	action	15	eeg	2	TJh7NqhhQYo	Using the pommel horse	Participating_in_sports&Exercise&Recreation	Sports, Exercise, and Recreation	Participating in Sports, Exercise, or Recreation	Doing gymnastics	114	1	True	True	True	True	0.8296298000022944
video_on	action	15	eeg	2	1ptx3ekHeCk	Using uneven bars	Participating_in_sports&Exercise&Recreation	Sports, Exercise, and Recreation	Participating in Sports, Exercise, or Recreation	Doing gymnastics	192	1	True	True	True	True	0.8019081999991613
video_on	action	15	eeg	2	5pHcAreuPxE	Smoking a cigarette	Relaxing&Leisure	Socializing, Relaxing, and Leisure	Relaxing and Leisure	Tobacco and drug use	201	3	False	False	False	True	0.0
video_on	action	15	meg	3	HcYyRExv-98	Slacklining	Relaxing&Leisure	Socializing, Relaxing, and Leisure	Relaxing and Leisure	Playing games	371	3	True	False	True	False	0.4178419146919623
video_on	action	15	meg	3	_3Y43EabWMo	Hand washing clothes	Housework	Household Activities	Housework	Laundry	232	6	True	False	False	True	0.972288809294696
video_on	action	15	meg	3	p1LSpmsthTw	Smoking a cigarette	Relaxing&Leisure	Socializing, Relaxing, and Leisure	Relaxing and Leisure	Tobacco and drug use	201	3	True	False	False	True	0.3701159626361914
video_on	action	15	meg	3	VJ-iKzKVigE	Putting in contact lenses	Grooming	Personal Care	Grooming	Washing, dressing and grooming oneself	351	4	True	False	False	True	0.5142404771904694
video_on	action	15	meg	3	hPEycJ1VGgI	Snow tubing	Participating_in_sports&Exercise&Recreation	Sports, Exercise, and Recreation	Participating in Sports, Exercise, or Recreation	Skiing, ice skating, snowboarding	372	1	True	True	True	True	0.6605939858854981
video_on	action	15	meg	3	e0nFm_4AHv0	Breakdancing	Arts&Entertainment	Socializing, Relaxing, and Leisure	Arts and Entertainment	Dancing	236	2	True	False	True	False	0.0051326634857105
video_on	action	15	meg	3	F4T4D9_qyUA	Doing kickboxing	Participating_in_sports&Exercise&Recreation	Sports, Exercise, and Recreation	Participating in Sports, Exercise, or Recreation	Participating in martial arts	70	1	True	True	True	True	0.4050650450371904
video_on	action	15	meg	3	4zjUalX08hs	Ice fishing	Participating_in_sports&Exercise&Recreation	Sports, Exercise, and Recreation	Participating in Sports, Exercise, or Recreation	Fishing	324	1	True	True	False	False	0.3710611116839573
video_on	action	15	meg	3	15uyX--lvNQ	Shot put	Participating_in_sports&Exercise&Recreation	Sports, Exercise, and Recreation	Participating in Sports, Exercise, or Recreation	Playing sports	169	1	True	True	True	True	0.5232938036933774
video_on	action	15	meg	3	YREgh0asWlo	Having an ice cream	Food&Drink_prep.&Presentation&Clean-up	Eating and drinking Activities	Food & Drink Prep., Presentation, & Clean-up	Eating and Drinking	320	5	True	False	False	True	0.3873417645081645
video_on	action	15	meg	3	43uolRJAQKw	Tai chi	Participating_in_sports&Exercise&Recreation	Sports, Exercise, and Recreation	Participating in Sports, Exercise, or Recreation	Participating in martial arts	263	1	True	True	False	False	0.9095886896102456
video_on	action	15	meg	3	8fw_pFLwxYc	Fun sliding down	Arts&Entertainment	Socializing, Relaxing, and Leisure	Arts and Entertainment	Park activities	313	2	True	False	False	True	0.579806230860413
video_on	action	15	meg	3	0BHvo8dTStA	Using uneven bars	Participating_in_sports&Exercise&Recreation	Sports, Exercise, and Recreation	Participating in Sports, Exercise, or Recreation	Doing gymnastics	192	1	True	True	True	True	0.4438016666099429
video_on	action	15	meg	3	k47PiCJF87Q	Cleaning shoes	Housework	Household Activities	Housework	Sewing, repairing, & maintaining textiles	134	6	True	False	False	True	0.4660722883563721
video_on	action	15	meg	3	ZxWOHccbikE	Using the monkey bar	Arts&Entertainment	Socializing, Relaxing, and Leisure	Arts and Entertainment	Park activities	383	2	True	False	True	False	0.334321045782417
video_on	action	15	meg	3	w5ibAWsfEkE	Painting fence	Exterior_maintenance&Repair&Decoration	Household Activities	Exterior Maintenance, Repair, & Decoration	Painting fence	336	12	True	False	False	True	0.4284248069161549
video_on	action	15	meg	3	JD8sAbRporE	Polishing shoes	Housework	Household Activities	Housework	Sewing, repairing, & maintaining textiles	227	6	True	False	False	True	0.4992581591068301
video_on	action	15	meg	3	YT4D8toMmxg	Polishing forniture	Housework	Household Activities	Housework	Interior cleaning	156	6	True	False	False	True	0.779347391333431
video_on	action	15	meg	3	LqjzRyfKaCo	Disc dog	Animals&Pets	Household Activities	Animals and Pets	Walking / exercising / playing with animals	303	8	True	False	False	True	0.7968545342882862
video_on	action	15	meg	3	VF-2Dl3rFpo	Riding bumper cars	Relaxing&Leisure	Socializing, Relaxing, and Leisure	Relaxing and Leisure	Playing games	356	3	True	False	False	True	0.3969387554971035
video_on	action	15	meg	3	unYy-Py1GsM	Cleaning windows	Housework	Household Activities	Housework	Interior cleaning	143	6	True	False	False	True	0.541178281797329
video_on	action	15	meg	3	1qLoaoyp1Lo	Pole vault	Participating_in_sports&Exercise&Recreation	Sports, Exercise, and Recreation	Participating in Sports, Exercise, or Recreation	Playing sports	106	1	True	True	True	True	0.4440087481343653
video_on	action	15	meg	3	oXbk-uNWrp8	Assembling bicycle	Vehicles	Household Activities	Vehicles	Vehicle repair and maintenance (by self)	273	11	True	False	False	True	0.4374394943151856
video_on	action	15	meg	3	7dlmPYHEb1E	Drum corps	Arts&Entertainment	Socializing, Relaxing, and Leisure	Arts and Entertainment	Playing musical instruments	307	2	True	False	False	True	0.7895894744578982
video_on	action	15	meg	3	pcrx7V3obeM	Grooming horse	Animals&Pets	Household Activities	Animals and Pets	Walking / exercising / playing with animals	95	8	True	False	False	True	0.460438523805351
video_on	action	15	meg	3	5JHbTNLMeuY	Cricket	Participating_in_sports&Exercise&Recreation	Sports, Exercise, and Recreation	Participating in Sports, Exercise, or Recreation	Playing sports	82	1	True	True	True	True	0.0053672150097554
video_on	action	15	meg	3	AZRnZ_OIJHg	Washing hands	Grooming	Personal Care	Grooming	Washing, dressing and grooming oneself	173	4	True	False	False	True	0.5419960425060708
video_on	action	15	meg	3	KZtxFwql8UM	Playing drums	Arts&Entertainment	Socializing, Relaxing, and Leisure	Arts and Entertainment	Playing musical instruments	346	2	True	False	True	False	0.7815848377649672
video_on	action	15	meg	3	qhM8YWfoXDM	Vacuuming floor	Housework	Household Activities	Housework	Interior cleaning	160	6	True	False	False	True	0.6231131356325932
video_on	action	15	meg	3	cnJ7VRbtYss	Hammer throw	Participating_in_sports&Exercise&Recreation	Sports, Exercise, and Recreation	Participating in Sports, Exercise, or Recreation	Playing sports	224	1	True	True	True	True	0.4783583204698516
video_on	action	15	meg	3	s-LWA0WsWXM	Camel ride	Participating_in_sports&Exercise&Recreation	Sports, Exercise, and Recreation	Participating in Sports, Exercise, or Recreation	Playing sports	291	1	True	True	False	False	0.4067210934881586
video_on	action	15	meg	3	_2ZTx7tzwQw	Longboarding	Participating_in_sports&Exercise&Recreation	Sports, Exercise, and Recreation	Participating in Sports, Exercise, or Recreation	Playing sports	331	1	True	True	False	False	0.4401569110486889
video_on	action	15	meg	3	u3AQv8kCOzg	Mowing the lawn	Lawn&Garden&Houseplants	Household Activities	Lawn, Garden, and Houseplants	Lawn, garden, and houseplant care	218	9	True	False	False	True	0.7269050519244047
video_on	action	15	meg	3	ntwSTqcT2s0	Making a sandwich	Food&Drink_prep.&Presentation&Clean-up	Eating and drinking Activities	Food & Drink Prep., Presentation, & Clean-up	Food and drink preparation	129	5	True	False	False	True	0.4445844106376171
video_on	action	15	meg	3	y7MiZlYIAso	Painting	Interior_maintenance&Repair&Decoration	Household Activities	Interior Maintenance, Repair, & Decoration	Interior arrangement, decoration, & repairs	217	7	True	False	False	True	0.3910665151197463
video_on	action	15	meg	3	a82__LCJ_gc	Knitting	Housework	Household Activities	Housework	Sewing, repairing, & maintaining textiles	329	6	True	False	False	True	0.3194193265080685
video_on	action	15	meg	3	7uc04eazHV4	Javelin throw	Participating_in_sports&Exercise&Recreation	Sports, Exercise, and Recreation	Participating in Sports, Exercise, or Recreation	Playing sports	116	1	True	True	True	True	0.3917523594864178
video_on	action	15	meg	3	1J5OgCEDEys	Dodgeball	Participating_in_sports&Exercise&Recreation	Sports, Exercise, and Recreation	Participating in Sports, Exercise, or Recreation	Playing sports	161	1	True	True	False	False	0.6072043843305437
video_on	action	15	meg	3	NJ4XV_2DY0U	Playing pool	Relaxing&Leisure	Socializing, Relaxing, and Leisure	Relaxing and Leisure	Playing games	348	3	True	False	False	True	0.6072596261947183
video_on	action	15	meg	3	f0ZH6Xl2HYE	Playing beach volleyball	Participating_in_sports&Exercise&Recreation	Sports, Exercise, and Recreation	Participating in Sports, Exercise, or Recreation	Playing volleyball	341	1	True	True	True	True	1.7775253154104576
video_on	action	15	meg	3	af2241YX0UQ	Table soccer	Relaxing&Leisure	Socializing, Relaxing, and Leisure	Relaxing and Leisure	Playing games	379	3	True	False	True	False	0.0050979486550204
video_on	action	15	meg	3	P6vDtQ3WOyc	Tango	Arts&Entertainment	Socializing, Relaxing, and Leisure	Arts and Entertainment	Dancing	73	2	True	False	True	False	0.3538965890329564
video_on	action	15	meg	3	rfK4t9e__c4	Beer pong	Relaxing&Leisure	Socializing, Relaxing, and Leisure	Relaxing and Leisure	Playing games	280	3	True	False	True	False	0.0050952318415511
video_on	action	15	meg	3	iI_TPoRMdYc	Rock climbing	Participating_in_sports&Exercise&Recreation	Sports, Exercise, and Recreation	Participating in Sports, Exercise, or Recreation	Climbing, spelunking, caving	188	1	True	True	True	True	0.4261318167409627
video_on	action	15	meg	3	MJsU64IQ_P4	Long jump	Participating_in_sports&Exercise&Recreation	Sports, Exercise, and Recreation	Participating in Sports, Exercise, or Recreation	Playing sports	80	1	True	True	True	True	0.4642550423304783
video_on	action	15	meg	3	EMtJXAW2kBQ	Playing guitarra	Arts&Entertainment	Socializing, Relaxing, and Leisure	Arts and Entertainment	Playing musical instruments	251	2	True	False	False	True	0.4564049621112644
video_on	action	15	meg	3	xdNCoDjgREY	Chopping wood	Interior_maintenance&Repair&Decoration	Household Activities	Interior Maintenance, Repair, & Decoration	Heating and cooling	110	7	True	False	False	True	0.7846029151405673
video_on	action	15	meg	3	XLVraCnI5Kc	Skateboarding	Participating_in_sports&Exercise&Recreation	Sports, Exercise, and Recreation	Participating in Sports, Exercise, or Recreation	Playing sports	176	1	True	True	True	True	0.528877458156785
video_on	action	15	meg	3	gnMbEstCrZ0	Ballet	Arts&Entertainment	Socializing, Relaxing, and Leisure	Arts and Entertainment	Attending arts and entertainment	229	2	True	False	True	False	0.6969364914839389
video_on	action	15	meg	3	SbANNj9U-x0	Throwing darts	Relaxing&Leisure	Socializing, Relaxing, and Leisure	Relaxing and Leisure	Playing games	380	3	True	False	False	True	0.4751808567234548
video_on	action	15	meg	3	3c6JxOtsaw0	Ironing clothes	Housework	Household Activities	Housework	Laundry	83	6	True	False	False	True	0.385257365196594
video_on	action	15	meg	3	wdY6QKSrQf0	Rope skipping	Participating_in_sports&Exercise&Recreation	Sports, Exercise, and Recreation	Participating in Sports, Exercise, or Recreation	Working out	361	1	True	True	True	True	0.5054114386875881
video_on	action	15	meg	3	yAS9_C53Va0	Capoeira	Participating_in_sports&Exercise&Recreation	Sports, Exercise, and Recreation	Participating in Sports, Exercise, or Recreation	Participating in martial arts	294	1	True	True	False	False	0.4414866400766186
video_on	action	15	meg	3	POQilWkpizk	Drinking coffee	Food&Drink_prep.&Presentation&Clean-up	Eating and drinking Activities	Food & Drink Prep., Presentation, & Clean-up	Eating and Drinking	68	5	True	False	True	False	0.6575070825929288
video_on	action	15	meg	3	mHobZR2xT_E	Walking the dog	Animals&Pets	Household Activities	Animals and Pets	Walking / exercising / playing with animals	221	8	True	False	False	True	0.8439112447376829
video_on	action	15	meg	3	Hma2H5EMiFE	Playing bagpipes	Arts&Entertainment	Socializing, Relaxing, and Leisure	Arts and Entertainment	Playing musical instruments	136	2	True	False	False	True	0.3620280103350524
video_on	action	15	meg	3	r8zsTBUgnCE	Kneeling	Participating_in_sports&Exercise&Recreation	Sports, Exercise, and Recreation	Participating in Sports, Exercise, or Recreation	Working out	328	1	True	True	False	False	0.4741542032861616
video_on	action	15	meg	3	D9Dk2ljbiV8	Volleyball	Participating_in_sports&Exercise&Recreation	Sports, Exercise, and Recreation	Participating in Sports, Exercise, or Recreation	Playing volleyball	123	1	True	True	True	True	0.4501922145282151
video_on	action	15	meg	3	-TzbyGizxvY	Playing blackjack	Arts&Entertainment	Socializing, Relaxing, and Leisure	Arts and Entertainment	Attending gambling establishments	343	2	True	False	False	True	0.4662503905419726
video_on	action	15	meg	3	rVcvP80hElw	Laying tile	Interior_maintenance&Repair&Decoration	Household Activities	Interior Maintenance, Repair, & Decoration	Interior arrangement, decoration, & repairs	330	7	True	False	False	True	0.3706046871084254
video_on	action	15	meg	3	5W7BzZwjkDE	Doing crunches	Participating_in_sports&Exercise&Recreation	Sports, Exercise, and Recreation	Participating in Sports, Exercise, or Recreation	Working out	305	1	True	True	True	True	0.4255416645901277
video_on	action	15	meg	3	0D-ZHo7Pywc	High jump	Participating_in_sports&Exercise&Recreation	Sports, Exercise, and Recreation	Participating in Sports, Exercise, or Recreation	Playing sports	195	1	True	True	True	True	0.5089671431778697
video_on	action	15	meg	3	kOXgt5Zt9H4	Smoking hookah	Relaxing&Leisure	Socializing, Relaxing, and Leisure	Relaxing and Leisure	Tobacco and drug use	189	3	True	False	False	True	0.411118406249443
video_on	action	15	meg	3	F3bztDC-pw4	Making an omelette	Food&Drink_prep.&Presentation&Clean-up	Eating and drinking Activities	Food & Drink Prep., Presentation, & Clean-up	Food and drink preparation	334	5	True	False	False	True	0.5792936588113662
video_on	action	15	meg	3	bfo6Ynn65YM	Playing lacrosse	Participating_in_sports&Exercise&Recreation	Sports, Exercise, and Recreation	Participating in Sports, Exercise, or Recreation	Playing racquet sports	209	1	True	True	True	True	0.6191686250240309
video_on	action	15	meg	3	1Mt31BAEwto	Running a marathon	Participating_in_sports&Exercise&Recreation	Sports, Exercise, and Recreation	Participating in Sports, Exercise, or Recreation	Running	362	1	True	True	True	True	0.5097429442103021
video_on	action	15	meg	3	C7KHtk4ubCE	Raking leaves	Lawn&Garden&Houseplants	Household Activities	Lawn, Garden, and Houseplants	Lawn, garden, and houseplant care	354	9	True	False	False	True	0.5398014613456326
video_on	action	15	meg	3	pO60ZObG3YU	Trimming branches or hedges	Lawn&Garden&Houseplants	Household Activities	Lawn, Garden, and Houseplants	Lawn, garden, and houseplant care	381	9	True	False	False	True	0.467965907024336
video_on	action	15	meg	3	Nmh0bCzuicQ	Snatch	Participating_in_sports&Exercise&Recreation	Sports, Exercise, and Recreation	Participating in Sports, Exercise, or Recreation	Weightlifting	79	1	True	True	True	True	0.4620764601713745
video_on	action	15	meg	3	tiLp9zgACkU	Carving jack-o-lanterns	Interior_maintenance&Repair&Decoration	Household Activities	Interior Maintenance, Repair, & Decoration	Interior arrangement, decoration, & repairs	295	7	True	False	False	True	0.396111033129273
video_on	action	15	meg	3	TblnYm1ctew	Playing squash	Participating_in_sports&Exercise&Recreation	Sports, Exercise, and Recreation	Participating in Sports, Exercise, or Recreation	Playing racquet sports	194	1	True	True	False	False	0.9402901858120458
video_on	action	15	meg	3	NoKGhcRcNPo	Starting a campfire	Participating_in_sports&Exercise&Recreation	Sports, Exercise, and Recreation	Participating in Sports, Exercise, or Recreation	Playing sports	153	1	True	True	False	False	0.3085819594562053
video_on	action	15	meg	3	cS2U-KXNe94	Croquet	Participating_in_sports&Exercise&Recreation	Sports, Exercise, and Recreation	Participating in Sports, Exercise, or Recreation	Playing sports	299	1	True	True	False	False	0.5167378320766147
video_on	action	15	meg	3	tlLT9YNpCDw	Springboard diving	Participating_in_sports&Exercise&Recreation	Sports, Exercise, and Recreation	Participating in Sports, Exercise, or Recreation	Participating in water sports	193	1	True	True	True	True	0.524665794277098
video_on	action	15	meg	3	szL51IHSqRY	Using the rowing machine	Participating_in_sports&Exercise&Recreation	Sports, Exercise, and Recreation	Participating in Sports, Exercise, or Recreation	Using cardiovascular equipment	384	1	True	True	True	True	0.0051278335886308
video_on	action	15	meg	3	HIkGnBX0Tqg	Rafting	Participating_in_sports&Exercise&Recreation	Sports, Exercise, and Recreation	Participating in Sports, Exercise, or Recreation	Boating	353	1	True	True	True	True	0.4711702370259445
video_on	action	15	meg	3	ht1YjWEyvdA	Getting a piercing	Grooming	Personal Care	Grooming	Washing, dressing and grooming	214	4	True	False	False	True	0.8772897073504282
video_on	action	15	meg	3	yRr7N8OgrjI	Using parallel bars	Participating_in_sports&Exercise&Recreation	Sports, Exercise, and Recreation	Participating in Sports, Exercise, or Recreation	Doing gymnastics	88	1	True	True	True	True	0.3093571567587787
video_on	action	15	meg	3	IQdLJpMfJtA	Cutting the grass	Lawn&Garden&Houseplants	Household Activities	Lawn, Garden, and Houseplants	Lawn, garden, and houseplant care	301	9	True	False	True	False	0.701387838635128
video_on	action	15	meg	3	4mzYmiz-8oI	BMX	Participating_in_sports&Exercise&Recreation	Sports, Exercise, and Recreation	Participating in Sports, Exercise, or Recreation	Biking	274	1	True	True	False	False	0.35772910657397
video_on	action	15	meg	3	APfQNN8jUVM	Doing step aerobics	Participating_in_sports&Exercise&Recreation	Sports, Exercise, and Recreation	Participating in Sports, Exercise, or Recreation	Doing aerobics	230	1	True	True	True	True	0.5818607452238211
video_on	action	15	meg	3	g2OAuBZdYmA	Bathing dog	Animals&Pets	Household Activities	Animals and Pets	Care for animals and pets (not veterinary care)	90	8	True	False	False	True	0.8141733115335228
video_on	action	15	meg	3	EMi7AUKQ4Zg	Rock-paper-scissors	Relaxing&Leisure	Socializing, Relaxing, and Leisure	Relaxing and Leisure	Playing games	358	3	True	False	False	True	0.6702253898256458
video_on	action	15	meg	3	KVCOjZ4wCgA	Fixing bicycle	Vehicles	Household Activities	Vehicles	Vehicle repair and maintenance (by self)	171	11	True	False	False	True	0.6862407005683053
video_on	action	15	meg	3	utX1SdGWFss	Canoeing	Participating_in_sports&Exercise&Recreation	Sports, Exercise, and Recreation	Participating in Sports, Exercise, or Recreation	Boating	292	1	True	True	True	True	0.3844827716238796
video_on	action	15	meg	3	XVpPVinXcCw	Playing violin	Arts&Entertainment	Socializing, Relaxing, and Leisure	Arts and Entertainment	Playing musical instruments	234	2	True	False	False	True	0.0051169663493055
video_on	action	15	meg	3	utHAuQNRkUM	Windsurfing	Participating_in_sports&Exercise&Recreation	Sports, Exercise, and Recreation	Participating in Sports, Exercise, or Recreation	Participating in water sports	237	1	True	True	True	True	0.6708565960434498
video_on	action	15	meg	3	xdajGdG5tio	Doing motocross	Participating_in_sports&Exercise&Recreation	Sports, Exercise, and Recreation	Participating in Sports, Exercise, or Recreation	Playing sports	243	1	True	True	False	False	0.7189813158620382
video_on	action	15	meg	3	evSAEI4qBuA	Welding	Appliances&Tools&Toys	Household Activities	Appliances, Tools, and Toys	Appliance, tool, and toy set-up, repair, & maintenance (by self)	388	10	True	False	False	True	0.813863896735711
video_on	action	15	meg	3	-67V07adhh8	Getting a haircut	Grooming	Personal Care	Grooming	Washing, dressing and grooming	208	4	False	False	False	True	0.0
video_on	action	15	eeg	3	M_EnsXQDVcU	Getting a tattoo	Grooming	Personal Care	Grooming	Washing, dressing and grooming	187	4	True	False	False	True	0.6461221999998088
video_on	action	15	eeg	3	K4ROh-uQUDI	Tumbling	Participating_in_sports&Exercise&Recreation	Sports, Exercise, and Recreation	Participating in Sports, Exercise, or Recreation	Doing gymnastics	258	1	True	True	True	True	0.7151810999966983
video_on	action	15	eeg	3	sCs5wYf-i7I	Beach soccer	Participating_in_sports&Exercise&Recreation	Sports, Exercise, and Recreation	Participating in Sports, Exercise, or Recreation	Playing soccer	278	1	True	True	False	False	0.6582807000013418
video_on	action	15	eeg	3	ISQM3VZKapM	Making a lemonade	Food&Drink_prep.&Presentation&Clean-up	Eating and drinking Activities	Food & Drink Prep., Presentation, & Clean-up	Food and drink preparation	333	5	True	False	False	True	0.576935199998843
video_on	action	15	eeg	3	Um0wcuNAmWA	Sharpening knives	Appliances&Tools&Toys	Household Activities	Appliances, Tools, and Toys	Appliance, tool, and toy set-up, repair, & maintenance (by self)	365	10	True	False	False	True	0.6362870000011753
video_on	action	15	eeg	3	lImTK6hJuSY	Camel ride	Participating_in_sports&Exercise&Recreation	Sports, Exercise, and Recreation	Participating in Sports, Exercise, or Recreation	Playing sports	291	1	True	True	False	False	0.7429365999996662
video_on	action	15	eeg	3	aYbWbMsHCPg	Kayaking	Participating_in_sports&Exercise&Recreation	Sports, Exercise, and Recreation	Participating in Sports, Exercise, or Recreation	Participating in water sports	254	1	True	True	True	True	0.6823905000019295
