event_name	task	subject	session	run	video_id	class_name	raw_superclass_name	superclass_level0	superclass_level1	superclass_level2	class_id	superclass_id	is_resp	stim_is_sports	resp_is_sports	resp_is_right	resp_time
video_on	action	29	meg	1	n-0Ol6l_JdU	Wakeboarding	Participating_in_sports&Exercise&Recreation	Sports, Exercise, and Recreation	Participating in Sports, Exercise, or Recreation	Participating in water sports	385	1	True	True	True	True	0.499599873815896
video_on	action	29	meg	1	TD1ys_XKu58	Brushing teeth	Grooming	Personal Care	Grooming	Washing, dressing and grooming oneself	148	4	True	False	False	True	0.4202432755264453
video_on	action	29	meg	1	f67SoAECEj8	Fun sliding down	Arts&Entertainment	Socializing, Relaxing, and Leisure	Arts and Entertainment	Park activities	313	2	True	False	False	True	0.4524366039258893
video_on	action	29	meg	1	gkmhPhBjegc	Getting a haircut	Grooming	Personal Care	Grooming	Washing, dressing and grooming	208	4	True	False	False	True	0.3747004336328245
video_on	action	29	meg	1	RrjK1oA-pUg	Futsal	Participating_in_sports&Exercise&Recreation	Sports, Exercise, and Recreation	Participating in Sports, Exercise, or Recreation	Playing soccer	315	1	True	True	True	True	0.3587322143139317
video_on	action	29	meg	1	s3kO2qp-htY	Playing kickball	Participating_in_sports&Exercise&Recreation	Sports, Exercise, and Recreation	Participating in Sports, Exercise, or Recreation	Playing sports	257	1	True	True	True	True	0.4449744242010638
video_on	action	29	meg	1	3ziKXvk4kxM	Fixing bicycle	Vehicles	Household Activities	Vehicles	Vehicle repair and maintenance (by self)	171	11	True	False	False	True	0.4049817294289823
video_on	action	29	meg	1	qbMS2M8Lcp0	Croquet	Participating_in_sports&Exercise&Recreation	Sports, Exercise, and Recreation	Participating in Sports, Exercise, or Recreation	Playing sports	299	1	True	True	False	False	0.419738552038325
video_on	action	29	meg	1	toxpBwPiBG0	Playing violin	Arts&Entertainment	Socializing, Relaxing, and Leisure	Arts and Entertainment	Playing musical instruments	234	2	True	False	False	True	0.3971648547158111
video_on	action	29	meg	1	wB97Q9NsbYw	Walking the dog	Animals&Pets	Household Activities	Animals and Pets	Walking / exercising / playing with animals	221	8	True	False	False	True	0.3401872488029767
video_on	action	29	meg	1	XjRHc2UOdFg	Playing flauta	Arts&Entertainment	Socializing, Relaxing, and Leisure	Arts and Entertainment	Playing musical instruments	149	2	True	False	False	True	0.6000039242790081
video_on	action	29	meg	1	83U6Oe6dgHo	Preparing salad	Food&Drink_prep.&Presentation&Clean-up	Eating and drinking Activities	Food & Drink Prep., Presentation, & Clean-up	Food and drink preparation	96	5	True	False	False	True	0.4138210314558819
video_on	action	29	meg	1	1r6_AHBThnA	Shot put	Participating_in_sports&Exercise&Recreation	Sports, Exercise, and Recreation	Participating in Sports, Exercise, or Recreation	Playing sports	169	1	True	True	True	True	0.5121298153826501
video_on	action	29	meg	1	65_m3Eyga0o	Using the balance beam	Participating_in_sports&Exercise&Recreation	Sports, Exercise, and Recreation	Participating in Sports, Exercise, or Recreation	Doing gymnastics	180	1	True	True	False	False	0.4754425763676408
video_on	action	29	meg	1	cAzxub_xcwI	Kneeling	Participating_in_sports&Exercise&Recreation	Sports, Exercise, and Recreation	Participating in Sports, Exercise, or Recreation	Working out	328	1	True	True	True	True	0.4941445133299567
video_on	action	29	meg	1	NqRK_CDe9VI	Starting a campfire	Participating_in_sports&Exercise&Recreation	Sports, Exercise, and Recreation	Participating in Sports, Exercise, or Recreation	Playing sports	153	1	True	True	False	False	0.4138732546416577
video_on	action	29	meg	1	MJ13GfIH0JY	Painting fence	Exterior_maintenance&Repair&Decoration	Household Activities	Exterior Maintenance, Repair, & Decoration	Painting fence	336	12	True	False	False	True	0.3825330054969527
video_on	action	29	meg	1	7WYL8tPd07Y	Playing field hockey	Participating_in_sports&Exercise&Recreation	Sports, Exercise, and Recreation	Participating in Sports, Exercise, or Recreation	Playing hockey	94	1	True	True	True	True	0.4547534416778944
video_on	action	29	meg	1	hjSM6uOlaow	Playing beach volleyball	Participating_in_sports&Exercise&Recreation	Sports, Exercise, and Recreation	Participating in Sports, Exercise, or Recreation	Playing volleyball	341	1	True	True	True	True	0.3428119920135941
video_on	action	29	meg	1	Xxf46ES2xNg	Skateboarding	Participating_in_sports&Exercise&Recreation	Sports, Exercise, and Recreation	Participating in Sports, Exercise, or Recreation	Playing sports	176	1	True	True	False	False	0.0050943262176588
video_on	action	29	meg	1	2ZtPZ4xVFqs	Breakdancing	Arts&Entertainment	Socializing, Relaxing, and Leisure	Arts and Entertainment	Dancing	236	2	True	False	False	True	0.4072001581662334
video_on	action	29	meg	1	5DvbIVbmM2A	Playing drums	Arts&Entertainment	Socializing, Relaxing, and Leisure	Arts and Entertainment	Playing musical instruments	346	2	True	False	False	True	0.5215145930706058
video_on	action	29	meg	1	xaY1u8GTL7k	Snow tubing	Participating_in_sports&Exercise&Recreation	Sports, Exercise, and Recreation	Participating in Sports, Exercise, or Recreation	Skiing, ice skating, snowboarding	372	1	True	True	True	True	0.5354349391127471
video_on	action	29	meg	1	CYuBSTSKOpE	Ping-pong	Participating_in_sports&Exercise&Recreation	Sports, Exercise, and Recreation	Participating in Sports, Exercise, or Recreation	Playing racquet sports	119	1	True	True	True	True	0.4576999763085041
video_on	action	29	meg	1	xxoOg31Ap_k	Doing kickboxing	Participating_in_sports&Exercise&Recreation	Sports, Exercise, and Recreation	Participating in Sports, Exercise, or Recreation	Participating in martial arts	70	1	True	True	True	True	0.6472269640653394
video_on	action	29	meg	1	6e5eDbBiLW0	Welding	Appliances&Tools&Toys	Household Activities	Appliances, Tools, and Toys	Appliance, tool, and toy set-up, repair, & maintenance (by self)	388	10	True	False	False	True	0.5432521157199517
video_on	action	29	meg	1	pN5sQSClY_k	Bungee jumping	Participating_in_sports&Exercise&Recreation	Sports, Exercise, and Recreation	Participating in Sports, Exercise, or Recreation	Playing sports	154	1	True	True	False	False	0.3916035385045688
video_on	action	29	meg	1	jEDTI-NzEdk	Tumbling	Participating_in_sports&Exercise&Recreation	Sports, Exercise, and Recreation	Participating in Sports, Exercise, or Recreation	Doing gymnastics	258	1	True	True	True	True	0.5278012983326335
video_on	action	29	meg	1	gI9n8gR7yF4	Canoeing	Participating_in_sports&Exercise&Recreation	Sports, Exercise, and Recreation	Participating in Sports, Exercise, or Recreation	Boating	292	1	True	True	False	False	0.4559379721467849
video_on	action	29	meg	1	kzc-k5hGrag	Building sandcastles	Arts&Entertainment	Socializing, Relaxing, and Leisure	Arts and Entertainment	Beach activities	286	2	True	False	False	True	0.4947452308551874
video_on	action	29	meg	1	Rnta1wIPe1s	Ironing clothes	Housework	Household Activities	Housework	Laundry	83	6	True	False	False	True	0.4263228992640506
video_on	action	29	meg	1	JkhDhhCUxzE	Elliptical trainer	Participating_in_sports&Exercise&Recreation	Sports, Exercise, and Recreation	Participating in Sports, Exercise, or Recreation	Using cardiovascular equipment	308	1	True	True	True	True	0.37637308484409
video_on	action	29	meg	1	xq49RIakynI	Doing nails	Grooming	Personal Care	Grooming	Washing, dressing and grooming oneself	167	4	True	False	False	True	0.4884865993226412
video_on	action	29	meg	1	1FoATPJd2wY	Chopping wood	Interior_maintenance&Repair&Decoration	Household Activities	Interior Maintenance, Repair, & Decoration	Heating and cooling	110	7	True	False	False	True	0.5206494390440639
video_on	action	29	meg	1	3JFB8TAsr2U	Playing pool	Relaxing&Leisure	Socializing, Relaxing, and Leisure	Relaxing and Leisure	Playing games	348	3	True	False	False	True	0.376609447557712
video_on	action	29	meg	1	495g4k-acZA	Fixing the roof	Exterior_maintenance&Repair&Decoration	Household Activities	Exterior Maintenance, Repair, & Decoration	Exterior repair, improvements, & decoration	311	12	True	False	False	True	0.449045115703484
video_on	action	29	meg	1	3b7jA7tnPLE	Doing fencing	Participating_in_sports&Exercise&Recreation	Sports, Exercise, and Recreation	Participating in Sports, Exercise, or Recreation	Fencing	309	1	True	True	True	True	0.4091303028690163
video_on	action	29	meg	1	yQgr6rZ4X7k	Sharpening knives	Appliances&Tools&Toys	Household Activities	Appliances, Tools, and Toys	Appliance, tool, and toy set-up, repair, & maintenance (by self)	365	10	True	False	False	True	0.4799648625485133
video_on	action	29	meg	1	Xluoee4PvXQ	Using the monkey bar	Arts&Entertainment	Socializing, Relaxing, and Leisure	Arts and Entertainment	Park activities	383	2	True	False	False	True	0.4516282011172734
video_on	action	29	meg	1	n73BzIqISdg	Laying tile	Interior_maintenance&Repair&Decoration	Household Activities	Interior Maintenance, Repair, & Decoration	Interior arrangement, decoration, & repairs	330	7	True	False	False	True	0.5375495252374094
video_on	action	29	meg	1	YjX7vNLQDAM	Using uneven bars	Participating_in_sports&Exercise&Recreation	Sports, Exercise, and Recreation	Participating in Sports, Exercise, or Recreation	Doing gymnastics	192	1	True	True	True	True	0.3924958606366999
video_on	action	29	meg	1	iTeoAg9B7es	Calf roping	Participating_in_sports&Exercise&Recreation	Sports, Exercise, and Recreation	Participating in Sports, Exercise, or Recreation	Participating in rodeo competitions	290	1	True	True	False	False	0.5000943337799981
video_on	action	29	meg	1	LDp8bHXNFGs	Playing ice hockey	Participating_in_sports&Exercise&Recreation	Sports, Exercise, and Recreation	Participating in Sports, Exercise, or Recreation	Playing hockey	347	1	True	True	True	True	0.464819837565301
video_on	action	29	meg	1	3gkwZGUNYyM	Playing rubik cube	Relaxing&Leisure	Socializing, Relaxing, and Leisure	Relaxing and Leisure	Playing games	349	3	True	False	False	True	0.3710384715814143
video_on	action	29	meg	1	78bbIxaI9Wg	Cheerleading	Arts&Entertainment	Socializing, Relaxing, and Leisure	Arts and Entertainment	Dancing	140	2	True	False	False	True	0.7064320547797251
video_on	action	29	meg	1	Vt-4eRi13gc	Rafting	Participating_in_sports&Exercise&Recreation	Sports, Exercise, and Recreation	Participating in Sports, Exercise, or Recreation	Boating	353	1	True	True	False	False	0.5064646565297153
video_on	action	29	meg	1	yLZ5Qk3iE-Y	Baton twirling	Participating_in_sports&Exercise&Recreation	Sports, Exercise, and Recreation	Participating in Sports, Exercise, or Recreation	Playing sports	277	1	True	True	False	False	0.5708582563092932
video_on	action	29	meg	1	4z-nKryEVPQ	Having an ice cream	Food&Drink_prep.&Presentation&Clean-up	Eating and drinking Activities	Food & Drink Prep., Presentation, & Clean-up	Eating and Drinking	320	5	True	False	False	True	0.4587595333869103
video_on	action	29	meg	1	6TwePndHh28	Triple jump	Participating_in_sports&Exercise&Recreation	Sports, Exercise, and Recreation	Participating in Sports, Exercise, or Recreation	Playing sports	155	1	True	True	True	True	0.4451090574148111
video_on	action	29	meg	1	ImPTtNHEB1M	Playing water polo	Participating_in_sports&Exercise&Recreation	Sports, Exercise, and Recreation	Participating in Sports, Exercise, or Recreation	Participating in water sports	130	1	True	True	True	True	0.469120552559616
video_on	action	29	meg	1	jaLMcybT-1Y	Table soccer	Relaxing&Leisure	Socializing, Relaxing, and Leisure	Relaxing and Leisure	Playing games	379	3	True	False	False	True	0.3974069529213011
video_on	action	29	meg	1	5PQoOsPsido	Drinking coffee	Food&Drink_prep.&Presentation&Clean-up	Eating and drinking Activities	Food & Drink Prep., Presentation, & Clean-up	Eating and Drinking	68	5	True	False	False	True	0.4432567946787458
video_on	action	29	meg	1	MnNAyeXZcf4	Doing motocross	Participating_in_sports&Exercise&Recreation	Sports, Exercise, and Recreation	Participating in Sports, Exercise, or Recreation	Playing sports	243	1	True	True	False	False	0.5076147740182932
video_on	action	29	meg	1	sVJsQQA49as	Grooming horse	Animals&Pets	Household Activities	Animals and Pets	Walking / exercising / playing with animals	95	8	True	False	False	True	0.4037857279763557
video_on	action	29	meg	1	GNInQ2xBNwA	Knitting	Housework	Household Activities	Housework	Sewing, repairing, & maintaining textiles	329	6	True	False	False	True	0.4287414665450342
video_on	action	29	meg	1	dVKR7YU6438	Swimming	Participating_in_sports&Exercise&Recreation	Sports, Exercise, and Recreation	Participating in Sports, Exercise, or Recreation	Participating in water sports	377	1	True	True	True	True	0.5002017988299485
video_on	action	29	meg	1	jVsdT-o2X0c	Shaving	Grooming	Personal Care	Grooming	Washing, dressing and grooming oneself	190	4	True	False	False	True	0.3963356229942292
video_on	action	29	meg	1	GpB2N7OI2as	Bathing dog	Animals&Pets	Household Activities	Animals and Pets	Care for animals and pets (not veterinary care)	90	8	True	False	False	True	0.4923160981561523
video_on	action	29	meg	1	GoOF_Fyz35w	Blow-drying hair	Grooming	Personal Care	Grooming	Washing, dressing and grooming oneself	281	4	True	False	False	True	0.4767224971728865
video_on	action	29	meg	1	jb6XOqWb7EA	Playing blackjack	Arts&Entertainment	Socializing, Relaxing, and Leisure	Arts and Entertainment	Attending gambling establishments	343	2	True	False	False	True	0.4274872045498341
video_on	action	29	meg	1	IOBgMy1uBcY	Hand washing clothes	Housework	Household Activities	Housework	Laundry	232	6	True	False	False	True	0.5241529203485698
video_on	action	29	meg	1	k8byFja4rZA	Painting	Interior_maintenance&Repair&Decoration	Household Activities	Interior Maintenance, Repair, & Decoration	Interior arrangement, decoration, & repairs	217	7	True	False	False	True	0.3970528616337105
video_on	action	29	meg	1	GeWPWAPoS3A	Plastering	Interior_maintenance&Repair&Decoration	Household Activities	Interior Maintenance, Repair, & Decoration	Interior arrangement, decoration, & repairs	340	7	True	False	False	True	0.3490980935457628
video_on	action	29	meg	1	lRS6NRppuds	Using the rowing machine	Participating_in_sports&Exercise&Recreation	Sports, Exercise, and Recreation	Participating in Sports, Exercise, or Recreation	Using cardiovascular equipment	384	1	True	True	True	True	0.397512908646604
video_on	action	29	meg	1	nWrO_cFXfEo	Washing hands	Grooming	Personal Care	Grooming	Washing, dressing and grooming oneself	173	4	True	False	False	True	0.311599131237017
video_on	action	29	meg	1	cq8bJxew4RM	Painting furniture	Interior_maintenance&Repair&Decoration	Household Activities	Interior Maintenance, Repair, & Decoration	Building and repairing furniture	337	7	True	False	False	True	0.412266712548444
video_on	action	29	meg	1	A9EiVWCmoww	BMX	Participating_in_sports&Exercise&Recreation	Sports, Exercise, and Recreation	Participating in Sports, Exercise, or Recreation	Biking	274	1	True	True	True	True	0.4217924626427702
video_on	action	29	meg	1	A9s6gPc9J3A	Using the pommel horse	Participating_in_sports&Exercise&Recreation	Sports, Exercise, and Recreation	Participating in Sports, Exercise, or Recreation	Doing gymnastics	114	1	True	True	True	True	0.4940548584854696
video_on	action	29	meg	1	YRqAn7g025I	Camel ride	Participating_in_sports&Exercise&Recreation	Sports, Exercise, and Recreation	Participating in Sports, Exercise, or Recreation	Playing sports	291	1	True	True	False	False	0.5582265852426644
video_on	action	29	meg	1	nNZgTMO8evY	Hurling	Participating_in_sports&Exercise&Recreation	Sports, Exercise, and Recreation	Participating in Sports, Exercise, or Recreation	Playing sports	323	1	True	True	True	True	0.4061433179304003
video_on	action	29	meg	1	ES-ohoraTik	Tai chi	Participating_in_sports&Exercise&Recreation	Sports, Exercise, and Recreation	Participating in Sports, Exercise, or Recreation	Participating in martial arts	263	1	True	True	True	True	0.5183606750215404
video_on	action	29	meg	1	6CSe1xb3MPA	Plataform diving	Participating_in_sports&Exercise&Recreation	Sports, Exercise, and Recreation	Participating in Sports, Exercise, or Recreation	Participating in water sports	233	1	True	True	True	True	0.4886272698640823
video_on	action	29	meg	1	yEiHU4Q3dME	Snatch	Participating_in_sports&Exercise&Recreation	Sports, Exercise, and Recreation	Participating in Sports, Exercise, or Recreation	Weightlifting	79	1	True	True	True	True	0.3746998299029656
video_on	action	29	meg	1	dhnHCmmvNA8	Playing lacrosse	Participating_in_sports&Exercise&Recreation	Sports, Exercise, and Recreation	Participating in Sports, Exercise, or Recreation	Playing racquet sports	209	1	True	True	True	True	0.3988456563674845
video_on	action	29	meg	1	yv6md5V1mQU	Belly dance	Arts&Entertainment	Socializing, Relaxing, and Leisure	Arts and Entertainment	Dancing	247	2	True	False	False	True	0.4972136064025108
video_on	action	29	meg	1	dkXzQ2M9rwI	Hand car wash	Vehicles	Household Activities	Vehicles	Vehicle repair and maintenance (by self)	318	11	True	False	False	True	0.423176527954638
video_on	action	29	meg	1	lEue571q-pg	Skiing	Participating_in_sports&Exercise&Recreation	Sports, Exercise, and Recreation	Participating in Sports, Exercise, or Recreation	Skiing, ice skating, snowboarding	369	1	True	True	False	False	0.4379614242643583
video_on	action	29	meg	1	p1HWjW5s44w	Getting a piercing	Grooming	Personal Care	Grooming	Washing, dressing and grooming	214	4	True	False	False	True	0.4475028715096414
video_on	action	29	meg	1	QbfPnQcAo10	Making a sandwich	Food&Drink_prep.&Presentation&Clean-up	Eating and drinking Activities	Food & Drink Prep., Presentation, & Clean-up	Food and drink preparation	129	5	True	False	False	True	0.3843680617574136
video_on	action	29	meg	1	D2GbpCca_H8	Running a marathon	Participating_in_sports&Exercise&Recreation	Sports, Exercise, and Recreation	Participating in Sports, Exercise, or Recreation	Running	362	1	True	True	True	True	0.4464415032416582
video_on	action	29	meg	1	xIbk3R-U8wc	Tango	Arts&Entertainment	Socializing, Relaxing, and Leisure	Arts and Entertainment	Dancing	73	2	True	False	False	True	0.4320985418453347
video_on	action	29	meg	1	CHoiFPxgLR8	Mooping floor	Housework	Household Activities	Housework	Interior cleaning	335	6	True	False	False	True	0.4227931554487441
video_on	action	29	meg	1	ukUyMWlAsIU	Ballet	Arts&Entertainment	Socializing, Relaxing, and Leisure	Arts and Entertainment	Attending arts and entertainment	229	2	True	False	False	True	0.4562307842134032
video_on	action	29	meg	1	C0YNp7j_EEg	Playing squash	Participating_in_sports&Exercise&Recreation	Sports, Exercise, and Recreation	Participating in Sports, Exercise, or Recreation	Playing racquet sports	194	1	True	True	True	True	0.5624705489899497
video_on	action	29	meg	1	zWKsnfd3nUQ	Capoeira	Participating_in_sports&Exercise&Recreation	Sports, Exercise, and Recreation	Participating in Sports, Exercise, or Recreation	Participating in martial arts	294	1	True	True	False	False	0.5686766554717906
video_on	action	29	meg	1	gdRW4iMhzT0	Beer pong	Relaxing&Leisure	Socializing, Relaxing, and Leisure	Relaxing and Leisure	Playing games	280	3	True	False	False	True	0.4741919368098024
video_on	action	29	meg	1	iO2xahxDzJ0	Waxing skis	Appliances&Tools&Toys	Household Activities	Appliances, Tools, and Toys	Appliance, tool, and toy set-up, repair, & maintenance (by self)	387	10	True	False	False	True	0.4809894029167481
video_on	action	29	meg	1	ufYaQGeFpo0	Making a lemonade	Food&Drink_prep.&Presentation&Clean-up	Eating and drinking Activities	Food & Drink Prep., Presentation, & Clean-up	Food and drink preparation	333	5	True	False	False	True	0.400349261413794
video_on	action	29	meg	1	6TPyX35PAxc	Playing bagpipes	Arts&Entertainment	Socializing, Relaxing, and Leisure	Arts and Entertainment	Playing musical instruments	136	2	True	False	False	True	0.472509927698411
video_on	action	29	meg	1	ytS6wRXIGrE	Cricket	Participating_in_sports&Exercise&Recreation	Sports, Exercise, and Recreation	Participating in Sports, Exercise, or Recreation	Playing sports	82	1	False	True	False	False	0.0
video_on	action	29	eeg	1	908pd0qjYTU	Mowing the lawn	Lawn&Garden&Houseplants	Household Activities	Lawn, Garden, and Houseplants	Lawn, garden, and houseplant care	218	9	True	False	False	True	0.6845468999817967
video_on	action	29	eeg	1	RVSO9JBQD6c	Playing accordion	Arts&Entertainment	Socializing, Relaxing, and Leisure	Arts and Entertainment	Playing musical instruments	267	2	True	False	False	True	0.6208317999844439
video_on	action	29	eeg	1	B7BpTORAe9U	Snowboarding	Participating_in_sports&Exercise&Recreation	Sports, Exercise, and Recreation	Participating in Sports, Exercise, or Recreation	Skiing, ice skating, snowboarding	373	1	True	True	True	True	0.547426099947188
video_on	action	29	eeg	1	8OgqPgisDPo	Grooming horse	Animals&Pets	Household Activities	Animals and Pets	Walking / exercising / playing with animals	95	8	True	False	False	True	0.5672303999890573
video_on	action	29	eeg	1	yN2uhGHT8eU	Doing motocross	Participating_in_sports&Exercise&Recreation	Sports, Exercise, and Recreation	Participating in Sports, Exercise, or Recreation	Playing sports	243	1	True	True	False	False	0.6405710999970324
video_on	action	29	eeg	1	0bUwf2KpXNg	Playing squash	Participating_in_sports&Exercise&Recreation	Sports, Exercise, and Recreation	Participating in Sports, Exercise, or Recreation	Playing racquet sports	194	1	True	True	True	True	0.5387091999873519
video_on	action	29	eeg	1	IUH5UFX7-28	Snatch	Participating_in_sports&Exercise&Recreation	Sports, Exercise, and Recreation	Participating in Sports, Exercise, or Recreation	Weightlifting	79	1	True	True	True	True	0.6115959999733604
video_on	action	29	eeg	1	u9Q74KnyjEw	Sumo	Participating_in_sports&Exercise&Recreation	Sports, Exercise, and Recreation	Participating in Sports, Exercise, or Recreation	Wrestling	375	1	True	True	True	True	0.6015728000202216
video_on	action	29	eeg	1	pZ_YbCMKWaM	Getting a haircut	Grooming	Personal Care	Grooming	Washing, dressing and grooming	208	4	True	False	False	True	0.6885408000089228
video_on	action	29	eeg	1	xE7uTF25kh8	Doing fencing	Participating_in_sports&Exercise&Recreation	Sports, Exercise, and Recreation	Participating in Sports, Exercise, or Recreation	Fencing	309	1	True	True	True	True	0.5609924999880604
video_on	action	29	eeg	1	WnvAjhrgZD4	Washing hands	Grooming	Personal Care	Grooming	Washing, dressing and grooming oneself	173	4	True	False	False	True	0.6023648999980651
video_on	action	29	eeg	1	3wpVUa_qH3s	Sailing	Participating_in_sports&Exercise&Recreation	Sports, Exercise, and Recreation	Participating in Sports, Exercise, or Recreation	Participating in water sports	240	1	True	True	False	False	0.6831208000076003
video_on	action	29	eeg	1	fwinT8xRHfI	Shoveling snow	Exterior_maintenance&Repair&Decoration	Household Activities	Exterior Maintenance, Repair, & Decoration	Exterior cleaning	183	12	True	False	False	True	0.9754391000024044
video_on	action	29	eeg	1	8iUUI_jtL1o	Using uneven bars	Participating_in_sports&Exercise&Recreation	Sports, Exercise, and Recreation	Participating in Sports, Exercise, or Recreation	Doing gymnastics	192	1	True	True	True	True	0.5946575999842025
video_on	action	29	eeg	1	p9XmtGoHPAg	Doing crunches	Participating_in_sports&Exercise&Recreation	Sports, Exercise, and Recreation	Participating in Sports, Exercise, or Recreation	Working out	305	1	True	True	True	True	0.574766899982933
video_on	action	29	eeg	1	_G1CBu7eaZg	Croquet	Participating_in_sports&Exercise&Recreation	Sports, Exercise, and Recreation	Participating in Sports, Exercise, or Recreation	Playing sports	299	1	True	True	True	True	0.568616199947428
video_on	action	29	eeg	1	eYenApQlzjU	Rope skipping	Participating_in_sports&Exercise&Recreation	Sports, Exercise, and Recreation	Participating in Sports, Exercise, or Recreation	Working out	361	1	True	True	True	True	0.5390282000298612
video_on	action	29	eeg	1	Ln67BwL_CJY	Cheerleading	Arts&Entertainment	Socializing, Relaxing, and Leisure	Arts and Entertainment	Dancing	140	2	True	False	False	True	0.3956158999935724
video_on	action	29	eeg	1	9Yq5xco2B5s	Making an omelette	Food&Drink_prep.&Presentation&Clean-up	Eating and drinking Activities	Food & Drink Prep., Presentation, & Clean-up	Food and drink preparation	334	5	True	False	True	False	0.6746688000275753
video_on	action	29	eeg	1	q04JVZ6EgEY	Swinging at the playground	Arts&Entertainment	Socializing, Relaxing, and Leisure	Arts and Entertainment	Park activities	378	2	True	False	False	True	0.7313965000212193
video_on	action	29	eeg	1	2kMkO6nip4Y	Putting in contact lenses	Grooming	Personal Care	Grooming	Washing, dressing and grooming oneself	351	4	True	False	False	True	0.7563212999957614
video_on	action	29	eeg	1	ZMKIuWVPKQE	Kayaking	Participating_in_sports&Exercise&Recreation	Sports, Exercise, and Recreation	Participating in Sports, Exercise, or Recreation	Participating in water sports	254	1	True	True	True	True	0.9196452000178396
video_on	action	29	eeg	1	8qvWLZrclGk	Clean and jerk	Participating_in_sports&Exercise&Recreation	Sports, Exercise, and Recreation	Participating in Sports, Exercise, or Recreation	Weightlifting	84	1	True	True	True	True	0.5969917999464087
video_on	action	29	eeg	1	B-ub6-7UOuM	Fun sliding down	Arts&Entertainment	Socializing, Relaxing, and Leisure	Arts and Entertainment	Park activities	313	2	True	False	False	True	0.9391420999891124
video_on	action	29	eeg	1	AmHvXzN3wGs	Mooping floor	Housework	Household Activities	Housework	Interior cleaning	335	6	True	False	False	True	0.6066595999873243
video_on	action	29	eeg	1	RKIZF5KSPIw	Sharpening knives	Appliances&Tools&Toys	Household Activities	Appliances, Tools, and Toys	Appliance, tool, and toy set-up, repair, & maintenance (by self)	365	10	True	False	False	True	0.5789336999878287
video_on	action	29	eeg	1	OTDxXK2j0Oc	Calf roping	Participating_in_sports&Exercise&Recreation	Sports, Exercise, and Recreation	Participating in Sports, Exercise, or Recreation	Participating in rodeo competitions	290	1	True	True	False	False	0.5460332999937236
video_on	action	29	eeg	1	p4CztAeXK6A	Swimming	Participating_in_sports&Exercise&Recreation	Sports, Exercise, and Recreation	Participating in Sports, Exercise, or Recreation	Participating in water sports	377	1	True	True	True	True	0.5546093000448309
video_on	action	29	eeg	1	5WMPCXuVLwc	Rock-paper-scissors	Relaxing&Leisure	Socializing, Relaxing, and Leisure	Relaxing and Leisure	Playing games	358	3	True	False	False	True	0.6422636000206694
video_on	action	29	eeg	1	MJ13GfIH0JY	Painting fence	Exterior_maintenance&Repair&Decoration	Household Activities	Exterior Maintenance, Repair, & Decoration	Painting fence	336	12	True	False	False	True	0.7704583000158891
video_on	action	29	eeg	1	7ABqMQWaxqE	Smoking a cigarette	Relaxing&Leisure	Socializing, Relaxing, and Leisure	Relaxing and Leisure	Tobacco and drug use	201	3	True	False	False	True	0.695822199981194
video_on	action	29	eeg	1	pkPZl2mydEs	Fixing bicycle	Vehicles	Household Activities	Vehicles	Vehicle repair and maintenance (by self)	171	11	False	False	False	True	0.0
video_on	action	29	eeg	1	h6Hve4EG__M	Kneeling	Participating_in_sports&Exercise&Recreation	Sports, Exercise, and Recreation	Participating in Sports, Exercise, or Recreation	Working out	328	1	True	True	False	False	0.0050721000297926
video_on	action	29	eeg	1	B2b3Nz7Is4o	Using parallel bars	Participating_in_sports&Exercise&Recreation	Sports, Exercise, and Recreation	Participating in Sports, Exercise, or Recreation	Doing gymnastics	88	1	True	True	True	True	0.6027895999723114
video_on	action	29	eeg	1	gROUVAz_NEQ	Starting a campfire	Participating_in_sports&Exercise&Recreation	Sports, Exercise, and Recreation	Participating in Sports, Exercise, or Recreation	Playing sports	153	1	True	True	False	False	0.6112652000156231
video_on	action	29	eeg	1	MXumK3nMMdw	Capoeira	Participating_in_sports&Exercise&Recreation	Sports, Exercise, and Recreation	Participating in Sports, Exercise, or Recreation	Participating in martial arts	294	1	True	True	True	True	0.4678070999798365
video_on	action	29	eeg	1	1ue3weq2v0w	Baking cookies	Food&Drink_prep.&Presentation&Clean-up	Eating and drinking Activities	Food & Drink Prep., Presentation, & Clean-up	Food and drink preparation	276	5	True	False	False	True	0.6854541000211611
video_on	action	29	eeg	1	p_PLzKaoNj8	Horseback riding	Participating_in_sports&Exercise&Recreation	Sports, Exercise, and Recreation	Participating in Sports, Exercise, or Recreation	Participating in equestrian sports	175	1	True	True	False	False	0.8954022999969311
video_on	action	29	eeg	1	bXBCK3dRDs8	Spread mulch	Lawn&Garden&Houseplants	Household Activities	Lawn, Garden, and Houseplants	Lawn, garden, and houseplant care	374	9	True	False	False	True	0.8079586999956518
video_on	action	29	eeg	1	DScOSAwwqX0	Using the balance beam	Participating_in_sports&Exercise&Recreation	Sports, Exercise, and Recreation	Participating in Sports, Exercise, or Recreation	Doing gymnastics	180	1	True	True	True	True	0.6894752999651246
video_on	action	29	eeg	1	AJjoABeS34Q	Preparing salad	Food&Drink_prep.&Presentation&Clean-up	Eating and drinking Activities	Food & Drink Prep., Presentation, & Clean-up	Food and drink preparation	96	5	True	False	False	True	0.5391795000177808
video_on	action	29	eeg	1	7VOR35YxocU	Fixing the roof	Exterior_maintenance&Repair&Decoration	Household Activities	Exterior Maintenance, Repair, & Decoration	Exterior repair, improvements, & decoration	311	12	True	False	False	True	0.6093482000287622
video_on	action	29	eeg	1	ChQPKffPOGM	Bungee jumping	Participating_in_sports&Exercise&Recreation	Sports, Exercise, and Recreation	Participating in Sports, Exercise, or Recreation	Playing sports	154	1	True	True	False	False	0.5934453000081703
video_on	action	29	eeg	1	R0dgIsycfz8	Making a lemonade	Food&Drink_prep.&Presentation&Clean-up	Eating and drinking Activities	Food & Drink Prep., Presentation, & Clean-up	Food and drink preparation	333	5	True	False	False	True	0.5457192999892868
video_on	action	29	eeg	1	-0P2EwMEeXc	Skiing	Participating_in_sports&Exercise&Recreation	Sports, Exercise, and Recreation	Participating in Sports, Exercise, or Recreation	Skiing, ice skating, snowboarding	369	1	True	True	True	True	0.5875704999780282
video_on	action	29	eeg	1	2-p7n5NAIa0	Walking the dog	Animals&Pets	Household Activities	Animals and Pets	Walking / exercising / playing with animals	221	8	True	False	False	True	0.5593323999783024
video_on	action	29	eeg	1	cbL66gVAa5Y	Bullfighting	Participating_in_sports&Exercise&Recreation	Sports, Exercise, and Recreation	Participating in Sports, Exercise, or Recreation	Participating in rodeo competitions	288	1	True	True	False	False	0.5632704000454396
video_on	action	29	eeg	1	tiMInyjCq68	Raking leaves	Lawn&Garden&Houseplants	Household Activities	Lawn, Garden, and Houseplants	Lawn, garden, and houseplant care	354	9	True	False	False	True	0.6166425999836065
video_on	action	29	eeg	1	5O6YLMfAMAg	Playing drums	Arts&Entertainment	Socializing, Relaxing, and Leisure	Arts and Entertainment	Playing musical instruments	346	2	True	False	False	True	0.5925438999547623
video_on	action	29	eeg	1	iwy7s11ywDU	Vacuuming floor	Housework	Household Activities	Housework	Interior cleaning	160	6	True	False	False	True	0.5941413000109605
video_on	action	29	eeg	1	CN-S2mIfS3Y	Dodgeball	Participating_in_sports&Exercise&Recreation	Sports, Exercise, and Recreation	Participating in Sports, Exercise, or Recreation	Playing sports	161	1	True	True	True	True	0.91446050000377
video_on	action	29	eeg	1	01WMXesj4IE	Playing bagpipes	Arts&Entertainment	Socializing, Relaxing, and Leisure	Arts and Entertainment	Playing musical instruments	136	2	True	False	False	True	0.6477755000232719
video_on	action	29	eeg	1	RgzulO3PY8A	Plastering	Interior_maintenance&Repair&Decoration	Household Activities	Interior Maintenance, Repair, & Decoration	Interior arrangement, decoration, & repairs	340	7	True	False	False	True	0.6443572000134736
video_on	action	29	eeg	1	Xb87Qdymzog	Playing beach volleyball	Participating_in_sports&Exercise&Recreation	Sports, Exercise, and Recreation	Participating in Sports, Exercise, or Recreation	Playing volleyball	341	1	True	True	True	True	0.5099742999882437
video_on	action	29	eeg	1	bU3Pxtfh5S8	Playing flauta	Arts&Entertainment	Socializing, Relaxing, and Leisure	Arts and Entertainment	Playing musical instruments	149	2	True	False	False	True	0.5854653000133112
video_on	action	29	eeg	1	yMtJDJKzccQ	Laying tile	Interior_maintenance&Repair&Decoration	Household Activities	Interior Maintenance, Repair, & Decoration	Interior arrangement, decoration, & repairs	330	7	True	False	False	True	0.6403789999894798
video_on	action	29	eeg	1	xgHV51Sjl1c	Triple jump	Participating_in_sports&Exercise&Recreation	Sports, Exercise, and Recreation	Participating in Sports, Exercise, or Recreation	Playing sports	155	1	True	True	True	True	0.6935928000020795
video_on	action	29	eeg	1	olZp978hiik	Powerbocking	Participating_in_sports&Exercise&Recreation	Sports, Exercise, and Recreation	Participating in Sports, Exercise, or Recreation	Playing sports	350	1	True	True	True	True	0.6510947999777272
video_on	action	29	eeg	1	AMwDWnlR4gA	Blow-drying hair	Grooming	Personal Care	Grooming	Washing, dressing and grooming oneself	281	4	True	False	False	True	0.5922695999615826
video_on	action	29	eeg	1	vOldbivc1-A	Playing harmonica	Arts&Entertainment	Socializing, Relaxing, and Leisure	Arts and Entertainment	Playing musical instruments	100	2	True	False	False	True	0.5871661999844946
video_on	action	29	eeg	1	BNUfzjX0b9U	Tumbling	Participating_in_sports&Exercise&Recreation	Sports, Exercise, and Recreation	Participating in Sports, Exercise, or Recreation	Doing gymnastics	258	1	True	True	True	True	0.5764713999815285
video_on	action	29	eeg	1	CyJym8ky4H0	Ping-pong	Participating_in_sports&Exercise&Recreation	Sports, Exercise, and Recreation	Participating in Sports, Exercise, or Recreation	Playing racquet sports	119	1	True	True	True	True	0.584603400027845
video_on	action	29	eeg	1	Fnz1P56mAI0	Using the monkey bar	Arts&Entertainment	Socializing, Relaxing, and Leisure	Arts and Entertainment	Park activities	383	2	True	False	False	True	0.7505496999947354
video_on	action	29	eeg	1	VekBDyWT1GY	Waterskiing	Participating_in_sports&Exercise&Recreation	Sports, Exercise, and Recreation	Participating in Sports, Exercise, or Recreation	Participating in water sports	386	1	True	True	False	False	0.6201642000232823
video_on	action	29	eeg	1	vkHEmeJYA4E	Doing karate	Participating_in_sports&Exercise&Recreation	Sports, Exercise, and Recreation	Participating in Sports, Exercise, or Recreation	Participating in martial arts	99	1	True	True	True	True	0.505512900010217
video_on	action	29	eeg	1	SLjgKnQ-g_o	Table soccer	Relaxing&Leisure	Socializing, Relaxing, and Leisure	Relaxing and Leisure	Playing games	379	3	True	False	False	True	0.6359708000090905
video_on	action	29	eeg	1	yez4i7O5VOU	Making a cake	Food&Drink_prep.&Presentation&Clean-up	Eating and drinking Activities	Food & Drink Prep., Presentation, & Clean-up	Food and drink preparation	332	5	True	False	False	True	0.6790423999773338
video_on	action	29	eeg	1	Jgp9QBzBzT0	Playing blackjack	Arts&Entertainment	Socializing, Relaxing, and Leisure	Arts and Entertainment	Attending gambling establishments	343	2	True	False	False	True	0.6583438999950886
video_on	action	29	eeg	1	PhC8QGCuYFU	Pole vault	Participating_in_sports&Exercise&Recreation	Sports, Exercise, and Recreation	Participating in Sports, Exercise, or Recreation	Playing sports	106	1	True	True	True	True	0.5097604999900796
video_on	action	29	eeg	1	PCXfCe_HQ2A	Brushing hair	Grooming	Personal Care	Grooming	Washing, dressing and grooming oneself	125	4	True	False	False	True	0.581972100015264
video_on	action	29	eeg	1	GTN2eJdsV-A	Playing polo	Participating_in_sports&Exercise&Recreation	Sports, Exercise, and Recreation	Participating in Sports, Exercise, or Recreation	Participating in equestrian sports	75	1	True	True	True	True	0.5133849999983795
video_on	action	29	eeg	1	rv1GZF48Fhw	Playing pool	Relaxing&Leisure	Socializing, Relaxing, and Leisure	Relaxing and Leisure	Playing games	348	3	True	False	True	False	0.8669690000242554
video_on	action	29	eeg	1	N1GA0iVhSBI	Having an ice cream	Food&Drink_prep.&Presentation&Clean-up	Eating and drinking Activities	Food & Drink Prep., Presentation, & Clean-up	Eating and Drinking	320	5	True	False	False	True	0.6426821000059135
video_on	action	29	eeg	1	pFPJNezpWrk	Tai chi	Participating_in_sports&Exercise&Recreation	Sports, Exercise, and Recreation	Participating in Sports, Exercise, or Recreation	Participating in martial arts	263	1	True	True	False	False	0.6993824999663047
video_on	action	29	eeg	1	e15RkUZoRus	Hitting a pinata	Relaxing&Leisure	Socializing, Relaxing, and Leisure	Relaxing and Leisure	Playing games	321	3	True	False	False	True	0.6436202999902889
video_on	action	29	eeg	1	z_v_u5F_lKo	Breakdancing	Arts&Entertainment	Socializing, Relaxing, and Leisure	Arts and Entertainment	Dancing	236	2	True	False	False	True	0.5597136000287719
video_on	action	29	eeg	1	DZljZmUzxu8	Elliptical trainer	Participating_in_sports&Exercise&Recreation	Sports, Exercise, and Recreation	Participating in Sports, Exercise, or Recreation	Using cardiovascular equipment	308	1	True	True	True	True	0.732515899988357
video_on	action	29	eeg	1	L0FAzc47UxU	Skateboarding	Participating_in_sports&Exercise&Recreation	Sports, Exercise, and Recreation	Participating in Sports, Exercise, or Recreation	Playing sports	176	1	True	True	False	False	0.631411999987904
video_on	action	29	eeg	1	dMdkKorniXM	Decorating the Christmas tree	Interior_maintenance&Repair&Decoration	Household Activities	Interior Maintenance, Repair, & Decoration	Interior arrangement, decoration, & repairs	302	7	True	False	False	True	0.6982886000187136
video_on	action	29	eeg	1	_GzRlI7eSc4	Hanging wallpaper	Interior_maintenance&Repair&Decoration	Household Activities	Interior Maintenance, Repair, & Decoration	Interior arrangement, decoration, & repairs	319	7	True	False	False	True	1.0924773999722674
video_on	action	29	eeg	1	AYZjUi__aqc	Hopscotch	Relaxing&Leisure	Socializing, Relaxing, and Leisure	Relaxing and Leisure	Playing games	241	3	True	False	False	True	0.900316399987787
video_on	action	29	eeg	1	NbBxipaA8UQ	Chopping wood	Interior_maintenance&Repair&Decoration	Household Activities	Interior Maintenance, Repair, & Decoration	Heating and cooling	110	7	True	False	False	True	0.8419735999777913
video_on	action	29	eeg	1	-rwakixgdt8	Washing dishes	Food&Drink_prep.&Presentation&Clean-up	Eating and drinking Activities	Food & Drink Prep., Presentation, & Clean-up	Kitchen and food clean-up	213	5	True	False	False	True	0.7070466000004672
video_on	action	29	eeg	1	yiWSIxutRcE	Painting	Interior_maintenance&Repair&Decoration	Household Activities	Interior Maintenance, Repair, & Decoration	Interior arrangement, decoration, & repairs	217	7	True	False	False	True	0.8835461999988183
video_on	action	29	eeg	1	gZgXI-KI70k	Playing rubik cube	Relaxing&Leisure	Socializing, Relaxing, and Leisure	Relaxing and Leisure	Playing games	349	3	True	False	False	True	0.9770367000019178
video_on	action	29	eeg	1	K5_fub1VQrk	Getting a tattoo	Grooming	Personal Care	Grooming	Washing, dressing and grooming	187	4	True	False	False	True	0.617247199988924
video_on	action	29	eeg	1	4i9lSVK_nxw	Playing field hockey	Participating_in_sports&Exercise&Recreation	Sports, Exercise, and Recreation	Participating in Sports, Exercise, or Recreation	Playing hockey	94	1	True	True	True	True	0.5633343000081368
video_on	action	29	eeg	1	0h2IOCU6eZ8	Long jump	Participating_in_sports&Exercise&Recreation	Sports, Exercise, and Recreation	Participating in Sports, Exercise, or Recreation	Playing sports	80	1	True	True	True	True	0.4363614000030793
video_on	action	29	eeg	1	jhpP28EEnHI	Assembling bicycle	Vehicles	Household Activities	Vehicles	Vehicle repair and maintenance (by self)	273	11	True	False	False	True	0.6468745000311173
video_on	action	29	eeg	1	Rl0QTfwosZU	Paintball	Participating_in_sports&Exercise&Recreation	Sports, Exercise, and Recreation	Participating in Sports, Exercise, or Recreation	Playing sports	141	1	False	True	False	False	0.0
video_on	action	29	meg	2	DHxE0SiUdgM	Playing polo	Participating_in_sports&Exercise&Recreation	Sports, Exercise, and Recreation	Participating in Sports, Exercise, or Recreation	Participating in equestrian sports	75	1	True	True	True	True	0.5991523543489166
video_on	action	29	meg	2	RKpon4jmkGc	Rope skipping	Participating_in_sports&Exercise&Recreation	Sports, Exercise, and Recreation	Participating in Sports, Exercise, or Recreation	Working out	361	1	True	True	True	True	0.5437637821596581
video_on	action	29	meg	2	I59m8jE9zKs	Raking leaves	Lawn&Garden&Houseplants	Household Activities	Lawn, Garden, and Houseplants	Lawn, garden, and houseplant care	354	9	True	False	False	True	0.4287665216252208
video_on	action	29	meg	2	-R81fRZQYcw	Rock-paper-scissors	Relaxing&Leisure	Socializing, Relaxing, and Leisure	Relaxing and Leisure	Playing games	358	3	True	False	False	True	0.5122502607409842
video_on	action	29	meg	2	rDr68tHInRo	Playing congas	Arts&Entertainment	Socializing, Relaxing, and Leisure	Arts and Entertainment	Playing musical instruments	345	2	True	False	False	True	0.4448714871832635
video_on	action	29	meg	2	dFNrlEuHNds	Riding bumper cars	Relaxing&Leisure	Socializing, Relaxing, and Leisure	Relaxing and Leisure	Playing games	356	3	True	False	False	True	0.3578809462487697
video_on	action	29	meg	2	XSUC9nAWgxQ	Powerbocking	Participating_in_sports&Exercise&Recreation	Sports, Exercise, and Recreation	Participating in Sports, Exercise, or Recreation	Playing sports	350	1	True	True	False	False	0.7344357556721661
video_on	action	29	meg	2	7csUR-ZOurc	Swinging at the playground	Arts&Entertainment	Socializing, Relaxing, and Leisure	Arts and Entertainment	Park activities	378	2	True	False	False	True	0.4248386137478519
video_on	action	29	meg	2	ij_RVl9hLj0	Putting in contact lenses	Grooming	Personal Care	Grooming	Washing, dressing and grooming oneself	351	4	True	False	False	True	0.3115671332052443
video_on	action	29	meg	2	damrEkHC4GU	Getting a tattoo	Grooming	Personal Care	Grooming	Washing, dressing and grooming	187	4	True	False	False	True	0.4629156535083893
video_on	action	29	meg	2	KRso0lYq9Z4	Hitting a pinata	Relaxing&Leisure	Socializing, Relaxing, and Leisure	Relaxing and Leisure	Playing games	321	3	True	False	False	True	0.6152147565153427
video_on	action	29	meg	2	gw20Rw1f-SA	Hopscotch	Relaxing&Leisure	Socializing, Relaxing, and Leisure	Relaxing and Leisure	Playing games	241	3	True	False	False	True	0.3512066422845237
video_on	action	29	meg	2	-6GVDPrxw04	Playing accordion	Arts&Entertainment	Socializing, Relaxing, and Leisure	Arts and Entertainment	Playing musical instruments	267	2	True	False	False	True	0.4874400225817226
video_on	action	29	meg	2	Bb7yFiDmGd0	Cutting the grass	Lawn&Garden&Houseplants	Household Activities	Lawn, Garden, and Houseplants	Lawn, garden, and houseplant care	301	9	False	False	False	True	0.0
video_on	action	29	meg	2	BkM1hcBgDJk	Spread mulch	Lawn&Garden&Houseplants	Household Activities	Lawn, Garden, and Houseplants	Lawn, garden, and houseplant care	374	9	True	False	False	True	0.0053599701786879
video_on	action	29	meg	2	PHvnKHJQHjQ	Playing racquetball	Participating_in_sports&Exercise&Recreation	Sports, Exercise, and Recreation	Participating in Sports, Exercise, or Recreation	Playing racquet sports	253	1	True	True	True	True	0.4320294140197802
video_on	action	29	meg	2	qypLlr-lYUc	Doing step aerobics	Participating_in_sports&Exercise&Recreation	Sports, Exercise, and Recreation	Participating in Sports, Exercise, or Recreation	Doing aerobics	230	1	True	True	True	True	0.3543010923021938
video_on	action	29	meg	2	O4wSv1oJlhM	Windsurfing	Participating_in_sports&Exercise&Recreation	Sports, Exercise, and Recreation	Participating in Sports, Exercise, or Recreation	Participating in water sports	237	1	True	True	True	True	0.3920029099972453
video_on	action	29	meg	2	JJchhTeDZhM	Doing karate	Participating_in_sports&Exercise&Recreation	Sports, Exercise, and Recreation	Participating in Sports, Exercise, or Recreation	Participating in martial arts	99	1	True	True	False	False	0.5522743498149794
video_on	action	29	meg	2	YP31_wfU55k	Zumba	Participating_in_sports&Exercise&Recreation	Sports, Exercise, and Recreation	Participating in Sports, Exercise, or Recreation	Doing aerobics	69	1	True	True	True	True	0.3598279955331236
video_on	action	29	meg	2	kM1_73-zTME	Longboarding	Participating_in_sports&Exercise&Recreation	Sports, Exercise, and Recreation	Participating in Sports, Exercise, or Recreation	Playing sports	331	1	True	True	False	False	0.5536104180500843
video_on	action	29	meg	2	BrWS7hZmpYI	Playing badminton	Participating_in_sports&Exercise&Recreation	Sports, Exercise, and Recreation	Participating in Sports, Exercise, or Recreation	Playing racquet sports	268	1	True	True	True	True	0.4487731325498316
video_on	action	29	meg	2	8HxC_gj6F_0	Polishing forniture	Housework	Household Activities	Housework	Interior cleaning	156	6	True	False	False	True	0.3459016121050808
video_on	action	29	meg	2	FRn8B0Y3kMA	Preparing pasta	Food&Drink_prep.&Presentation&Clean-up	Eating and drinking Activities	Food & Drink Prep., Presentation, & Clean-up	Food and drink preparation	186	5	True	False	False	True	0.4011818136496003
video_on	action	29	meg	2	5FxjW8WN660	Vacuuming floor	Housework	Household Activities	Housework	Interior cleaning	160	6	True	False	False	True	0.4327638591639697
video_on	action	29	meg	2	SxNvyEpEjHM	Sumo	Participating_in_sports&Exercise&Recreation	Sports, Exercise, and Recreation	Participating in Sports, Exercise, or Recreation	Wrestling	375	1	True	True	True	True	0.3934373872471042
video_on	action	29	meg	2	QGfdG1JNE1s	Surfing	Participating_in_sports&Exercise&Recreation	Sports, Exercise, and Recreation	Participating in Sports, Exercise, or Recreation	Participating in water sports	376	1	True	True	True	True	0.4255401552363764
video_on	action	29	meg	2	sXi9oWIrPzI	Playing saxophone	Arts&Entertainment	Socializing, Relaxing, and Leisure	Arts and Entertainment	Playing musical instruments	109	2	True	False	False	True	0.587397308263462
video_on	action	29	meg	2	zU-n5p6w7ec	Spinning	Participating_in_sports&Exercise&Recreation	Sports, Exercise, and Recreation	Participating in Sports, Exercise, or Recreation	Using cardiovascular equipment	117	1	True	True	True	True	0.4560828688263427
video_on	action	29	meg	2	CaFmN5fLX7o	Hula hoop	Relaxing&Leisure	Socializing, Relaxing, and Leisure	Relaxing and Leisure	Playing games	322	3	True	False	False	True	0.3957542249991093
video_on	action	29	meg	2	UXw6VL4nIa8	Arm wrestling	Participating_in_sports&Exercise&Recreation	Sports, Exercise, and Recreation	Participating in Sports, Exercise, or Recreation	Wrestling	271	1	True	True	False	False	0.4171289022197015
video_on	action	29	meg	2	N_xcFI8UZQg	Discus throw	Participating_in_sports&Exercise&Recreation	Sports, Exercise, and Recreation	Participating in Sports, Exercise, or Recreation	Playing sports	92	1	True	True	True	True	0.5218732123612426
video_on	action	29	meg	2	Au7U8c4VVec	Grooming dog	Animals&Pets	Household Activities	Animals and Pets	Care for animals and pets (not veterinary care)	317	8	True	False	False	True	0.4825301377568394
video_on	action	29	meg	2	MyiLgvT73gw	Assembling bicycle	Vehicles	Household Activities	Vehicles	Vehicle repair and maintenance (by self)	273	11	True	False	False	True	0.4427735038334504
video_on	action	29	meg	2	2xu1X8ffQb8	Rock climbing	Participating_in_sports&Exercise&Recreation	Sports, Exercise, and Recreation	Participating in Sports, Exercise, or Recreation	Climbing, spelunking, caving	188	1	True	True	False	False	0.6988494296965655
video_on	action	29	meg	2	6sUEqdyi0DE	Putting on makeup	Grooming	Personal Care	Grooming	Washing, dressing and grooming oneself	76	4	True	False	False	True	0.6532610057329293
video_on	action	29	meg	2	28Wa5L-fkkM	Putting on shoes	Grooming	Personal Care	Grooming	Washing, dressing and grooming oneself	352	4	True	False	False	True	0.5092267497384455
video_on	action	29	meg	2	WukuwBP3K14	Springboard diving	Participating_in_sports&Exercise&Recreation	Sports, Exercise, and Recreation	Participating in Sports, Exercise, or Recreation	Participating in water sports	193	1	True	True	True	True	0.3707513950066641
video_on	action	29	meg	2	I1pYEzAy228	Archery	Participating_in_sports&Exercise&Recreation	Sports, Exercise, and Recreation	Participating in Sports, Exercise, or Recreation	Playing sports	250	1	True	True	False	False	0.7235301664331928
video_on	action	29	meg	2	FSRdQZXoQas	Throwing darts	Relaxing&Leisure	Socializing, Relaxing, and Leisure	Relaxing and Leisure	Playing games	380	3	True	False	False	True	0.4112240600807126
video_on	action	29	meg	2	9zSzzSfagR4	Disc dog	Animals&Pets	Household Activities	Animals and Pets	Walking / exercising / playing with animals	303	8	True	False	False	True	0.3391874616208952
video_on	action	29	meg	2	xRGwgBHX8cg	Pole vault	Participating_in_sports&Exercise&Recreation	Sports, Exercise, and Recreation	Participating in Sports, Exercise, or Recreation	Playing sports	106	1	True	True	True	True	0.4601559752481989
video_on	action	29	meg	2	MauLyK9wzVE	Smoking a cigarette	Relaxing&Leisure	Socializing, Relaxing, and Leisure	Relaxing and Leisure	Tobacco and drug use	201	3	True	False	False	True	0.5236557435709983
video_on	action	29	meg	2	B9ZkcYJR-jc	Shoveling snow	Exterior_maintenance&Repair&Decoration	Household Activities	Exterior Maintenance, Repair, & Decoration	Exterior cleaning	183	12	True	False	False	True	0.4845203541917726
video_on	action	29	meg	2	ZU45SFjksxc	Using parallel bars	Participating_in_sports&Exercise&Recreation	Sports, Exercise, and Recreation	Participating in Sports, Exercise, or Recreation	Doing gymnastics	88	1	True	True	True	True	0.4604672012792434
video_on	action	29	meg	2	OpqVCNhjMD0	Braiding hair	Grooming	Personal Care	Grooming	Washing, dressing and grooming oneself	285	4	True	False	False	True	0.6301077216339763
video_on	action	29	meg	2	QXjf-t0zKjs	Long jump	Participating_in_sports&Exercise&Recreation	Sports, Exercise, and Recreation	Participating in Sports, Exercise, or Recreation	Playing sports	80	1	True	True	True	True	0.8064035282295663
video_on	action	29	meg	2	qWOyXYvV6tE	Hammer throw	Participating_in_sports&Exercise&Recreation	Sports, Exercise, and Recreation	Participating in Sports, Exercise, or Recreation	Playing sports	224	1	True	True	True	True	0.3565065407310612
video_on	action	29	meg	2	fBw75KBEwfE	Clean and jerk	Participating_in_sports&Exercise&Recreation	Sports, Exercise, and Recreation	Participating in Sports, Exercise, or Recreation	Weightlifting	84	1	True	True	True	True	0.5192768447450362
video_on	action	29	meg	2	Pl2EsWwOTwU	Waterskiing	Participating_in_sports&Exercise&Recreation	Sports, Exercise, and Recreation	Participating in Sports, Exercise, or Recreation	Participating in water sports	386	1	True	True	False	False	0.5806541783676948
video_on	action	29	meg	2	XTLqttlu03g	Brushing hair	Grooming	Personal Care	Grooming	Washing, dressing and grooming oneself	125	4	True	False	False	True	0.3430601275758818
video_on	action	29	meg	2	b6rxQKDmYqE	Making a cake	Food&Drink_prep.&Presentation&Clean-up	Eating and drinking Activities	Food & Drink Prep., Presentation, & Clean-up	Food and drink preparation	332	5	True	False	False	True	0.4138104660669341
video_on	action	29	meg	2	FO6WquWmcJU	Bullfighting	Participating_in_sports&Exercise&Recreation	Sports, Exercise, and Recreation	Participating in Sports, Exercise, or Recreation	Participating in rodeo competitions	288	1	True	True	False	False	0.8932419276679866
video_on	action	29	meg	2	smBNLn71Dmg	Mowing the lawn	Lawn&Garden&Houseplants	Household Activities	Lawn, Garden, and Houseplants	Lawn, garden, and houseplant care	218	9	True	False	False	True	0.5195183392497711
video_on	action	29	meg	2	K3aQgkLCB40	Ice fishing	Participating_in_sports&Exercise&Recreation	Sports, Exercise, and Recreation	Participating in Sports, Exercise, or Recreation	Fishing	324	1	True	True	False	False	0.4040800493967253
video_on	action	29	meg	2	vZve7AUSl88	Shuffleboard	Relaxing&Leisure	Socializing, Relaxing, and Leisure	Relaxing and Leisure	Playing games	368	3	True	False	False	True	0.4776616088929586
video_on	action	29	meg	2	2zjUsxtKwdI	Paintball	Participating_in_sports&Exercise&Recreation	Sports, Exercise, and Recreation	Participating in Sports, Exercise, or Recreation	Playing sports	141	1	True	True	False	False	0.4800044072617311
video_on	action	29	meg	2	IaA2gStiJO8	Polishing shoes	Housework	Household Activities	Housework	Sewing, repairing, & maintaining textiles	227	6	True	False	False	True	0.3966196808905806
video_on	action	29	meg	2	Mexg6NPK5Hg	Hanging wallpaper	Interior_maintenance&Repair&Decoration	Household Activities	Interior Maintenance, Repair, & Decoration	Interior arrangement, decoration, & repairs	319	7	True	False	False	True	0.6218350260460284
video_on	action	29	meg	2	olpwEciOUeo	Baking cookies	Food&Drink_prep.&Presentation&Clean-up	Eating and drinking Activities	Food & Drink Prep., Presentation, & Clean-up	Food and drink preparation	276	5	True	False	False	True	0.4724951361422427
video_on	action	29	meg	2	l-rg8IJty7g	Beach soccer	Participating_in_sports&Exercise&Recreation	Sports, Exercise, and Recreation	Participating in Sports, Exercise, or Recreation	Playing soccer	278	1	True	True	True	True	0.6383330239041243
video_on	action	29	meg	2	ItoJsv5E0-I	Playing harmonica	Arts&Entertainment	Socializing, Relaxing, and Leisure	Arts and Entertainment	Playing musical instruments	100	2	True	False	False	True	0.409481375478208
video_on	action	29	meg	2	_-QN8F0gnvM	Snowboarding	Participating_in_sports&Exercise&Recreation	Sports, Exercise, and Recreation	Participating in Sports, Exercise, or Recreation	Skiing, ice skating, snowboarding	373	1	True	True	False	False	0.6628736938582733
video_on	action	29	meg	2	z9YvcQeJy0s	Dodgeball	Participating_in_sports&Exercise&Recreation	Sports, Exercise, and Recreation	Participating in Sports, Exercise, or Recreation	Playing sports	161	1	True	True	True	True	0.4461749537149444
video_on	action	29	meg	2	nkEuWlL3M4g	Wrapping presents	Household_management	Household Activities	Household Management	Household & personal organization and planning	179	13	True	False	False	True	0.4009780526685063
video_on	action	29	meg	2	cucn8unPjeo	Sailing	Participating_in_sports&Exercise&Recreation	Sports, Exercise, and Recreation	Participating in Sports, Exercise, or Recreation	Participating in water sports	240	1	True	True	False	False	0.4871173255669418
video_on	action	29	meg	2	jxdeA8lyvP4	Decorating the Christmas tree	Interior_maintenance&Repair&Decoration	Household Activities	Interior Maintenance, Repair, & Decoration	Interior arrangement, decoration, & repairs	302	7	True	False	False	True	0.3621759257221129
video_on	action	29	meg	2	2YjA0opM3FY	Scuba diving	Participating_in_sports&Exercise&Recreation	Sports, Exercise, and Recreation	Participating in Sports, Exercise, or Recreation	Participating in water sports	364	1	True	True	False	False	0.5182746426144149
video_on	action	29	meg	2	yixFYHYZEZ0	Smoking hookah	Relaxing&Leisure	Socializing, Relaxing, and Leisure	Relaxing and Leisure	Tobacco and drug use	189	3	True	False	False	True	0.4716982043464668
video_on	action	29	meg	2	lNP-NYWsCyA	Cleaning sink	Interior_maintenance&Repair&Decoration	Household Activities	Interior Maintenance, Repair, & Decoration	Interior arrangement, decoration, & repairs	297	7	True	False	False	True	0.4317746373417321
video_on	action	29	meg	2	1CRv4Wd0fU4	Volleyball	Participating_in_sports&Exercise&Recreation	Sports, Exercise, and Recreation	Participating in Sports, Exercise, or Recreation	Playing volleyball	123	1	True	True	True	True	0.3680877108126879
video_on	action	29	meg	2	csS2V26rN0A	Kite flying	Relaxing&Leisure	Socializing, Relaxing, and Leisure	Relaxing and Leisure	Playing games	327	3	True	False	False	True	0.3383534000022337
video_on	action	29	meg	2	uiofyTAX8y0	Javelin throw	Participating_in_sports&Exercise&Recreation	Sports, Exercise, and Recreation	Participating in Sports, Exercise, or Recreation	Playing sports	116	1	True	True	False	False	0.4563388529932126
video_on	action	29	meg	2	dPjkCk2dEX8	Kayaking	Participating_in_sports&Exercise&Recreation	Sports, Exercise, and Recreation	Participating in Sports, Exercise, or Recreation	Participating in water sports	254	1	True	True	False	False	0.4005551354493946
video_on	action	29	meg	2	-hKO8lEXJ9Y	Slacklining	Relaxing&Leisure	Socializing, Relaxing, and Leisure	Relaxing and Leisure	Playing games	371	3	True	False	True	False	0.3512950896692928
video_on	action	29	meg	2	tvSsNXyZLPc	Doing crunches	Participating_in_sports&Exercise&Recreation	Sports, Exercise, and Recreation	Participating in Sports, Exercise, or Recreation	Working out	305	1	True	True	True	True	0.4167971491697244
video_on	action	29	meg	2	DfcsTf97tGw	Mixing drinks	Food&Drink_prep.&Presentation&Clean-up	Eating and drinking Activities	Food & Drink Prep., Presentation, & Clean-up	Food and drink preparation	244	5	True	False	False	True	0.6009095286135562
video_on	action	29	meg	2	7dLGad8P1IE	Playing guitarra	Arts&Entertainment	Socializing, Relaxing, and Leisure	Arts and Entertainment	Playing musical instruments	251	2	True	False	False	True	0.4512478472897783
video_on	action	29	meg	2	_-iUPK46RgE	Cleaning shoes	Housework	Household Activities	Housework	Sewing, repairing, & maintaining textiles	134	6	True	False	False	True	0.3933450156473554
video_on	action	29	meg	2	29EVAN-y8Zo	Drum corps	Arts&Entertainment	Socializing, Relaxing, and Leisure	Arts and Entertainment	Playing musical instruments	307	2	True	False	False	True	0.5206998510111589
video_on	action	29	meg	2	Y7x4TsHtt2w	High jump	Participating_in_sports&Exercise&Recreation	Sports, Exercise, and Recreation	Participating in Sports, Exercise, or Recreation	Playing sports	195	1	True	True	True	True	0.3775992730807047
video_on	action	29	meg	2	-XTIcWpeHMk	Tug of war	Relaxing&Leisure	Socializing, Relaxing, and Leisure	Relaxing and Leisure	Playing games	382	3	True	False	False	True	0.4259346968610771
video_on	action	29	meg	2	RCOFDC3lugY	Making an omelette	Food&Drink_prep.&Presentation&Clean-up	Eating and drinking Activities	Food & Drink Prep., Presentation, & Clean-up	Food and drink preparation	334	5	True	False	False	True	0.3700006490107626
video_on	action	29	meg	2	iKrrQ4LtH7c	Rollerblading	Participating_in_sports&Exercise&Recreation	Sports, Exercise, and Recreation	Participating in Sports, Exercise, or Recreation	Playing sports	359	1	True	True	False	False	0.3381321306806057
video_on	action	29	meg	2	Pe9q_WBM8Xo	Playing piano	Arts&Entertainment	Socializing, Relaxing, and Leisure	Arts and Entertainment	Playing musical instruments	197	2	True	False	False	True	0.386285226122709
video_on	action	29	meg	2	_u5lJXif2ps	Cleaning windows	Housework	Household Activities	Housework	Interior cleaning	143	6	True	False	False	True	0.3051581713370979
video_on	action	29	meg	2	D-U95Rgr5lk	Washing dishes	Food&Drink_prep.&Presentation&Clean-up	Eating and drinking Activities	Food & Drink Prep., Presentation, & Clean-up	Kitchen and food clean-up	213	5	True	False	False	True	0.3946632736478932
video_on	action	29	meg	2	uFZyXwIU8Zk	Horseback riding	Participating_in_sports&Exercise&Recreation	Sports, Exercise, and Recreation	Participating in Sports, Exercise, or Recreation	Participating in equestrian sports	175	1	True	True	False	False	0.386738632019842
video_on	action	29	meg	2	l5RXag_DERI	Carving jack-o-lanterns	Interior_maintenance&Repair&Decoration	Household Activities	Interior Maintenance, Repair, & Decoration	Interior arrangement, decoration, & repairs	295	7	True	False	False	True	0.386823758832179
video_on	action	29	meg	2	Zdp0dWFIJCA	Trimming branches or hedges	Lawn&Garden&Houseplants	Household Activities	Lawn, Garden, and Houseplants	Lawn, garden, and houseplant care	381	9	False	False	False	True	0.0
video_on	action	29	eeg	2	HCOqt5AP3gw	Getting a piercing	Grooming	Personal Care	Grooming	Washing, dressing and grooming	214	4	True	False	False	True	0.8421649999800138
video_on	action	29	eeg	2	zL7K3nkbP_o	Ballet	Arts&Entertainment	Socializing, Relaxing, and Leisure	Arts and Entertainment	Attending arts and entertainment	229	2	True	False	True	False	0.5249358000000939
video_on	action	29	eeg	2	MHhq66fYLs0	Doing nails	Grooming	Personal Care	Grooming	Washing, dressing and grooming oneself	167	4	True	False	False	True	0.4628926999866962
video_on	action	29	eeg	2	oYXWOzleo1Q	Doing kickboxing	Participating_in_sports&Exercise&Recreation	Sports, Exercise, and Recreation	Participating in Sports, Exercise, or Recreation	Participating in martial arts	70	1	True	True	False	False	0.6362635000259615
video_on	action	29	eeg	2	-EvG0ynvM5A	Drum corps	Arts&Entertainment	Socializing, Relaxing, and Leisure	Arts and Entertainment	Playing musical instruments	307	2	True	False	False	True	0.6382610999862663
video_on	action	29	eeg	2	WPolN2vgkqQ	Cricket	Participating_in_sports&Exercise&Recreation	Sports, Exercise, and Recreation	Participating in Sports, Exercise, or Recreation	Playing sports	82	1	True	True	True	True	0.5172231000033207
video_on	action	29	eeg	2	c3oz4O3_ae8	Doing step aerobics	Participating_in_sports&Exercise&Recreation	Sports, Exercise, and Recreation	Participating in Sports, Exercise, or Recreation	Doing aerobics	230	1	True	True	False	False	0.6738042999641038
video_on	action	29	eeg	2	BZ9-6Y79xKQ	Playing racquetball	Participating_in_sports&Exercise&Recreation	Sports, Exercise, and Recreation	Participating in Sports, Exercise, or Recreation	Playing racquet sports	253	1	True	True	True	True	0.2708305999985896
video_on	action	29	eeg	2	bnXbZaesX8A	Cleaning shoes	Housework	Household Activities	Housework	Sewing, repairing, & maintaining textiles	134	6	True	False	False	True	0.7041774999815971
video_on	action	29	eeg	2	o6q7f9bCdlU	Arm wrestling	Participating_in_sports&Exercise&Recreation	Sports, Exercise, and Recreation	Participating in Sports, Exercise, or Recreation	Wrestling	271	1	True	True	False	False	0.6598103999858722
video_on	action	29	eeg	2	UbeaCK3gucA	Canoeing	Participating_in_sports&Exercise&Recreation	Sports, Exercise, and Recreation	Participating in Sports, Exercise, or Recreation	Boating	292	1	True	True	True	True	0.4884844999760389
video_on	action	29	eeg	2	B1mQ7eGAChU	Hammer throw	Participating_in_sports&Exercise&Recreation	Sports, Exercise, and Recreation	Participating in Sports, Exercise, or Recreation	Playing sports	224	1	True	True	True	True	0.5865246999892406
video_on	action	29	eeg	2	r-U9hz3C-Kc	Playing violin	Arts&Entertainment	Socializing, Relaxing, and Leisure	Arts and Entertainment	Playing musical instruments	234	2	True	False	False	True	0.7371861999854445
video_on	action	29	eeg	2	IOh0sIf8LMA	Shot put	Participating_in_sports&Exercise&Recreation	Sports, Exercise, and Recreation	Participating in Sports, Exercise, or Recreation	Playing sports	169	1	True	True	True	True	0.4436368999886326
video_on	action	29	eeg	2	mDaTYNznBNA	Rollerblading	Participating_in_sports&Exercise&Recreation	Sports, Exercise, and Recreation	Participating in Sports, Exercise, or Recreation	Playing sports	359	1	True	True	False	False	0.4863670000340789
video_on	action	29	eeg	2	bDK9z12wb7Q	Rafting	Participating_in_sports&Exercise&Recreation	Sports, Exercise, and Recreation	Participating in Sports, Exercise, or Recreation	Boating	353	1	True	True	True	True	0.6080539000104181
video_on	action	29	eeg	2	CgTTdptQXb8	Kite flying	Relaxing&Leisure	Socializing, Relaxing, and Leisure	Relaxing and Leisure	Playing games	327	3	True	False	False	True	0.9714671000256204
video_on	action	29	eeg	2	87MqS3E_FFk	Polishing forniture	Housework	Household Activities	Housework	Interior cleaning	156	6	True	False	False	True	0.6538273000041954
video_on	action	29	eeg	2	zMiLS4i5K9Y	Futsal	Participating_in_sports&Exercise&Recreation	Sports, Exercise, and Recreation	Participating in Sports, Exercise, or Recreation	Playing soccer	315	1	True	True	True	True	0.9439155000145548
video_on	action	29	eeg	2	fh55qldlqPM	Plataform diving	Participating_in_sports&Exercise&Recreation	Sports, Exercise, and Recreation	Participating in Sports, Exercise, or Recreation	Participating in water sports	233	1	True	True	True	True	0.6979357999516651
video_on	action	29	eeg	2	ZwrFjZ3j2L0	Beer pong	Relaxing&Leisure	Socializing, Relaxing, and Leisure	Relaxing and Leisure	Playing games	280	3	True	False	False	True	0.5478266999707557
video_on	action	29	eeg	2	H4wAMTDd870	Archery	Participating_in_sports&Exercise&Recreation	Sports, Exercise, and Recreation	Participating in Sports, Exercise, or Recreation	Playing sports	250	1	True	True	True	True	0.5725260999752209
video_on	action	29	eeg	2	T1UUU3xNisI	Baton twirling	Participating_in_sports&Exercise&Recreation	Sports, Exercise, and Recreation	Participating in Sports, Exercise, or Recreation	Playing sports	277	1	True	True	True	True	0.91341039998224
video_on	action	29	eeg	2	7lcCU3Fy6S8	Longboarding	Participating_in_sports&Exercise&Recreation	Sports, Exercise, and Recreation	Participating in Sports, Exercise, or Recreation	Playing sports	331	1	True	True	False	False	0.7647126999800093
video_on	action	29	eeg	2	2xm0LuM_WHQ	Putting on makeup	Grooming	Personal Care	Grooming	Washing, dressing and grooming oneself	76	4	True	False	False	True	0.5469601000077091
video_on	action	29	eeg	2	N3PCVXOEvLk	Throwing darts	Relaxing&Leisure	Socializing, Relaxing, and Leisure	Relaxing and Leisure	Playing games	380	3	True	False	False	True	0.5001868999679573
video_on	action	29	eeg	2	rnNrUASGrd4	Playing piano	Arts&Entertainment	Socializing, Relaxing, and Leisure	Arts and Entertainment	Playing musical instruments	197	2	True	False	False	True	0.5431237999582663
video_on	action	29	eeg	2	UWTz7BR7EZs	Riding bumper cars	Relaxing&Leisure	Socializing, Relaxing, and Leisure	Relaxing and Leisure	Playing games	356	3	True	False	False	True	0.5885060000000522
video_on	action	29	eeg	2	-g9XDEDcPQA	Braiding hair	Grooming	Personal Care	Grooming	Washing, dressing and grooming oneself	285	4	True	False	False	True	0.8907919999910519
video_on	action	29	eeg	2	pka0k3iTRvo	Spinning	Participating_in_sports&Exercise&Recreation	Sports, Exercise, and Recreation	Participating in Sports, Exercise, or Recreation	Using cardiovascular equipment	117	1	True	True	False	False	1.1611387999728322
video_on	action	29	eeg	2	udK--artFDg	Playing lacrosse	Participating_in_sports&Exercise&Recreation	Sports, Exercise, and Recreation	Participating in Sports, Exercise, or Recreation	Playing racquet sports	209	1	True	True	True	True	0.8703227000078186
video_on	action	29	eeg	2	HfPGRA130kU	Using the rowing machine	Participating_in_sports&Exercise&Recreation	Sports, Exercise, and Recreation	Participating in Sports, Exercise, or Recreation	Using cardiovascular equipment	384	1	True	True	True	True	0.6326148000080138
video_on	action	29	eeg	2	erBl-8NYILg	Tango	Arts&Entertainment	Socializing, Relaxing, and Leisure	Arts and Entertainment	Dancing	73	2	True	False	False	True	0.6411456000059843
video_on	action	29	eeg	2	aE83fKtAm5Q	Hurling	Participating_in_sports&Exercise&Recreation	Sports, Exercise, and Recreation	Participating in Sports, Exercise, or Recreation	Playing sports	323	1	True	True	True	True	0.5144596999743953
video_on	action	29	eeg	2	H6ZSCvu4_Hk	Waxing skis	Appliances&Tools&Toys	Household Activities	Appliances, Tools, and Toys	Appliance, tool, and toy set-up, repair, & maintenance (by self)	387	10	True	False	False	True	0.7214616000419483
video_on	action	29	eeg	2	S7QpPbYFvJw	Polishing shoes	Housework	Household Activities	Housework	Sewing, repairing, & maintaining textiles	227	6	True	False	False	True	0.9793209999916144
video_on	action	29	eeg	2	wkaoXIOWTsA	Rock climbing	Participating_in_sports&Exercise&Recreation	Sports, Exercise, and Recreation	Participating in Sports, Exercise, or Recreation	Climbing, spelunking, caving	188	1	True	True	True	True	0.6376942999777384
video_on	action	29	eeg	2	WiGoVhMaCEE	Shuffleboard	Relaxing&Leisure	Socializing, Relaxing, and Leisure	Relaxing and Leisure	Playing games	368	3	True	False	False	True	0.65503439999884
video_on	action	29	eeg	2	W2aw9GWJLGA	Brushing teeth	Grooming	Personal Care	Grooming	Washing, dressing and grooming oneself	148	4	True	False	False	True	0.9791118999710308
video_on	action	29	eeg	2	4FMVgTm4lfY	BMX	Participating_in_sports&Exercise&Recreation	Sports, Exercise, and Recreation	Participating in Sports, Exercise, or Recreation	Biking	274	1	True	True	True	True	0.7877202999661677
video_on	action	29	eeg	2	q9HfRIdRviQ	Playing saxophone	Arts&Entertainment	Socializing, Relaxing, and Leisure	Arts and Entertainment	Playing musical instruments	109	2	True	False	False	True	0.565811800013762
video_on	action	29	eeg	2	qW5DBXPww10	Making a sandwich	Food&Drink_prep.&Presentation&Clean-up	Eating and drinking Activities	Food & Drink Prep., Presentation, & Clean-up	Food and drink preparation	129	5	False	False	False	True	0.0
video_on	action	29	eeg	2	YGIObbTNt7I	Smoking hookah	Relaxing&Leisure	Socializing, Relaxing, and Leisure	Relaxing and Leisure	Tobacco and drug use	189	3	True	False	False	True	0.9365543000167236
video_on	action	29	eeg	2	WZiE6FZCOk8	Beach soccer	Participating_in_sports&Exercise&Recreation	Sports, Exercise, and Recreation	Participating in Sports, Exercise, or Recreation	Playing soccer	278	1	True	True	True	True	0.5477709000115283
video_on	action	29	eeg	2	8uSLtR5SFZw	Running a marathon	Participating_in_sports&Exercise&Recreation	Sports, Exercise, and Recreation	Participating in Sports, Exercise, or Recreation	Running	362	1	True	True	False	False	0.4776642000069842
video_on	action	29	eeg	2	zVUkujSuXpM	Preparing pasta	Food&Drink_prep.&Presentation&Clean-up	Eating and drinking Activities	Food & Drink Prep., Presentation, & Clean-up	Food and drink preparation	186	5	True	False	False	True	0.00512789998902
video_on	action	29	eeg	2	rCy4LSf0Ds8	Using the pommel horse	Participating_in_sports&Exercise&Recreation	Sports, Exercise, and Recreation	Participating in Sports, Exercise, or Recreation	Doing gymnastics	114	1	True	True	True	True	0.500525799987372
video_on	action	29	eeg	2	WqGq9OKI3xI	Slacklining	Relaxing&Leisure	Socializing, Relaxing, and Leisure	Relaxing and Leisure	Playing games	371	3	True	False	False	True	0.5290900999680161
video_on	action	29	eeg	2	Szlj3WasWOg	Drinking coffee	Food&Drink_prep.&Presentation&Clean-up	Eating and drinking Activities	Food & Drink Prep., Presentation, & Clean-up	Eating and Drinking	68	5	True	False	False	True	0.5331962999771349
video_on	action	29	eeg	2	Uqfw5U9ntEQ	Snow tubing	Participating_in_sports&Exercise&Recreation	Sports, Exercise, and Recreation	Participating in Sports, Exercise, or Recreation	Skiing, ice skating, snowboarding	372	1	True	True	True	True	0.881124000006821
video_on	action	29	eeg	2	DvRWaiTgdFY	Ironing clothes	Housework	Household Activities	Housework	Laundry	83	6	True	False	False	True	0.705984800006263
video_on	action	29	eeg	2	RZ8r5B69CLY	Volleyball	Participating_in_sports&Exercise&Recreation	Sports, Exercise, and Recreation	Participating in Sports, Exercise, or Recreation	Playing volleyball	123	1	True	True	True	True	0.6463218000135385
video_on	action	29	eeg	2	HE0EZhtaoGw	Bathing dog	Animals&Pets	Household Activities	Animals and Pets	Care for animals and pets (not veterinary care)	90	8	True	False	False	True	0.8464576000114903
video_on	action	29	eeg	2	28VmUxTDU5Q	Playing guitarra	Arts&Entertainment	Socializing, Relaxing, and Leisure	Arts and Entertainment	Playing musical instruments	251	2	True	False	False	True	0.8410875999834388
video_on	action	29	eeg	2	vajtNYawgc4	Playing water polo	Participating_in_sports&Exercise&Recreation	Sports, Exercise, and Recreation	Participating in Sports, Exercise, or Recreation	Participating in water sports	130	1	True	True	True	True	0.2007304999860935
video_on	action	29	eeg	2	3ur8dz0i184	Putting on shoes	Grooming	Personal Care	Grooming	Washing, dressing and grooming oneself	352	4	True	False	False	True	0.5255924999946728
video_on	action	29	eeg	2	ljko5Z2gekg	Wakeboarding	Participating_in_sports&Exercise&Recreation	Sports, Exercise, and Recreation	Participating in Sports, Exercise, or Recreation	Participating in water sports	385	1	True	True	False	False	0.5491565999691375
video_on	action	29	eeg	2	ip0YIyJ85OM	Javelin throw	Participating_in_sports&Exercise&Recreation	Sports, Exercise, and Recreation	Participating in Sports, Exercise, or Recreation	Playing sports	116	1	True	True	True	True	0.9585206000483596
video_on	action	29	eeg	2	1ZfB1iSZdSs	Knitting	Housework	Household Activities	Housework	Sewing, repairing, & maintaining textiles	329	6	True	False	False	True	0.5993949000257999
video_on	action	29	eeg	2	xDtNacvXkiU	Belly dance	Arts&Entertainment	Socializing, Relaxing, and Leisure	Arts and Entertainment	Dancing	247	2	True	False	True	False	0.7160368000040762
video_on	action	29	eeg	2	haiViZ7dXwc	Wrapping presents	Household_management	Household Activities	Household Management	Household & personal organization and planning	179	13	True	False	False	True	0.7641032000537962
video_on	action	29	eeg	2	eLQ1hPI97s8	Surfing	Participating_in_sports&Exercise&Recreation	Sports, Exercise, and Recreation	Participating in Sports, Exercise, or Recreation	Participating in water sports	376	1	True	True	False	False	0.4539435000042431
video_on	action	29	eeg	2	24dpU7mX0Jo	Mixing drinks	Food&Drink_prep.&Presentation&Clean-up	Eating and drinking Activities	Food & Drink Prep., Presentation, & Clean-up	Food and drink preparation	244	5	True	False	False	True	0.7490636999718845
video_on	action	29	eeg	2	pipmaN-WNN8	Cleaning windows	Housework	Household Activities	Housework	Interior cleaning	143	6	False	False	False	True	0.0
video_on	action	29	eeg	2	tOxFWbcfKTg	Springboard diving	Participating_in_sports&Exercise&Recreation	Sports, Exercise, and Recreation	Participating in Sports, Exercise, or Recreation	Participating in water sports	193	1	True	True	False	False	0.0050688000046648
video_on	action	29	eeg	2	fTm10uz5L9s	Ice fishing	Participating_in_sports&Exercise&Recreation	Sports, Exercise, and Recreation	Participating in Sports, Exercise, or Recreation	Fishing	324	1	True	True	False	False	0.7758289000485092
video_on	action	29	eeg	2	PYAv5miD-ec	Playing ice hockey	Participating_in_sports&Exercise&Recreation	Sports, Exercise, and Recreation	Participating in Sports, Exercise, or Recreation	Playing hockey	347	1	True	True	True	True	0.598843699961435
video_on	action	29	eeg	2	DKDQ-rquUhg	Camel ride	Participating_in_sports&Exercise&Recreation	Sports, Exercise, and Recreation	Participating in Sports, Exercise, or Recreation	Playing sports	291	1	True	True	False	False	0.5468732999870554
video_on	action	29	eeg	2	2pvjBvQac9Q	Playing congas	Arts&Entertainment	Socializing, Relaxing, and Leisure	Arts and Entertainment	Playing musical instruments	345	2	True	False	False	True	0.5989537999848835
video_on	action	29	eeg	2	38qG7VDRrBY	Tug of war	Relaxing&Leisure	Socializing, Relaxing, and Leisure	Relaxing and Leisure	Playing games	382	3	True	False	False	True	0.8207975999685004
video_on	action	29	eeg	2	USR538t5zME	Shaving	Grooming	Personal Care	Grooming	Washing, dressing and grooming oneself	190	4	True	False	False	True	0.4997991000418551
video_on	action	29	eeg	2	66e5TurrbVI	Hand car wash	Vehicles	Household Activities	Vehicles	Vehicle repair and maintenance (by self)	318	11	True	False	False	True	0.5839610999682918
video_on	action	29	eeg	2	PSKCra6rOCQ	Windsurfing	Participating_in_sports&Exercise&Recreation	Sports, Exercise, and Recreation	Participating in Sports, Exercise, or Recreation	Participating in water sports	237	1	True	True	True	True	0.5012007000041194
video_on	action	29	eeg	2	5BkG6rzSTYU	Cutting the grass	Lawn&Garden&Houseplants	Household Activities	Lawn, Garden, and Houseplants	Lawn, garden, and houseplant care	301	9	True	False	False	True	0.9649844000232406
video_on	action	29	eeg	2	d2GgXcTf6SE	Cleaning sink	Interior_maintenance&Repair&Decoration	Household Activities	Interior Maintenance, Repair, & Decoration	Interior arrangement, decoration, & repairs	297	7	True	False	False	True	0.9340748999966308
video_on	action	29	eeg	2	lL4UdTmQ_U4	Scuba diving	Participating_in_sports&Exercise&Recreation	Sports, Exercise, and Recreation	Participating in Sports, Exercise, or Recreation	Participating in water sports	364	1	True	True	False	False	0.5594375999644399
video_on	action	29	eeg	2	vWWzgNkxffc	Playing kickball	Participating_in_sports&Exercise&Recreation	Sports, Exercise, and Recreation	Participating in Sports, Exercise, or Recreation	Playing sports	257	1	True	True	True	True	0.9751276000170036
video_on	action	29	eeg	2	LvIrrYg7PD0	Carving jack-o-lanterns	Interior_maintenance&Repair&Decoration	Household Activities	Interior Maintenance, Repair, & Decoration	Interior arrangement, decoration, & repairs	295	7	True	False	False	True	0.6087413000059314
video_on	action	29	eeg	2	gGJn9m5DONE	Disc dog	Animals&Pets	Household Activities	Animals and Pets	Walking / exercising / playing with animals	303	8	True	False	False	True	0.7567749000154436
video_on	action	29	eeg	2	dN938S_W-Vk	High jump	Participating_in_sports&Exercise&Recreation	Sports, Exercise, and Recreation	Participating in Sports, Exercise, or Recreation	Playing sports	195	1	True	True	True	True	0.3163866000249982
video_on	action	29	eeg	2	9gPwJuXB1Wc	Discus throw	Participating_in_sports&Exercise&Recreation	Sports, Exercise, and Recreation	Participating in Sports, Exercise, or Recreation	Playing sports	92	1	True	True	True	True	0.0050817999872379
video_on	action	29	eeg	2	l9AksDDtREE	Painting furniture	Interior_maintenance&Repair&Decoration	Household Activities	Interior Maintenance, Repair, & Decoration	Building and repairing furniture	337	7	True	False	False	True	0.9339438999886625
video_on	action	29	eeg	2	tUHvNgokUys	Hula hoop	Relaxing&Leisure	Socializing, Relaxing, and Leisure	Relaxing and Leisure	Playing games	322	3	True	False	False	True	0.497553399996832
video_on	action	29	eeg	2	dA6lyHUy9gE	Welding	Appliances&Tools&Toys	Household Activities	Appliances, Tools, and Toys	Appliance, tool, and toy set-up, repair, & maintenance (by self)	388	10	True	False	False	True	0.0050737999845296
video_on	action	29	eeg	2	eG_Hpsx28_I	Building sandcastles	Arts&Entertainment	Socializing, Relaxing, and Leisure	Arts and Entertainment	Beach activities	286	2	True	False	False	True	1.0266945000039414
video_on	action	29	eeg	2	xqcXIO55r8s	Grooming dog	Animals&Pets	Household Activities	Animals and Pets	Care for animals and pets (not veterinary care)	317	8	False	False	False	True	0.0
video_on	action	29	eeg	2	p_M3buk9nyg	Playing badminton	Participating_in_sports&Exercise&Recreation	Sports, Exercise, and Recreation	Participating in Sports, Exercise, or Recreation	Playing racquet sports	268	1	True	True	False	False	0.0050714000244624
video_on	action	29	eeg	2	qG3yh2SdRWg	Trimming branches or hedges	Lawn&Garden&Houseplants	Household Activities	Lawn, Garden, and Houseplants	Lawn, garden, and houseplant care	381	9	True	False	False	True	0.5101843000156805
video_on	action	29	eeg	2	gcrcASH3KqE	Zumba	Participating_in_sports&Exercise&Recreation	Sports, Exercise, and Recreation	Participating in Sports, Exercise, or Recreation	Doing aerobics	69	1	True	True	True	True	0.8574896999634802
video_on	action	29	eeg	2	4hSGNEPm0JE	Hand washing clothes	Housework	Household Activities	Housework	Laundry	232	6	False	False	False	True	0.0
video_on	action	29	meg	3	RfcpAvQPvng	Volleyball	Participating_in_sports&Exercise&Recreation	Sports, Exercise, and Recreation	Participating in Sports, Exercise, or Recreation	Playing volleyball	123	1	True	True	True	True	0.4752427396888379
video_on	action	29	meg	3	wqXdAmtvMjs	Discus throw	Participating_in_sports&Exercise&Recreation	Sports, Exercise, and Recreation	Participating in Sports, Exercise, or Recreation	Playing sports	92	1	True	True	True	True	0.5396514328895137
video_on	action	29	meg	3	pZSl63Rh4Fk	Playing bagpipes	Arts&Entertainment	Socializing, Relaxing, and Leisure	Arts and Entertainment	Playing musical instruments	136	2	True	False	False	True	0.3911869605071842
video_on	action	29	meg	3	YrlBJqUxWZ0	Laying tile	Interior_maintenance&Repair&Decoration	Household Activities	Interior Maintenance, Repair, & Decoration	Interior arrangement, decoration, & repairs	330	7	True	False	False	True	0.4005961895163636
video_on	action	29	meg	3	0HSYiFlyqlU	Raking leaves	Lawn&Garden&Houseplants	Household Activities	Lawn, Garden, and Houseplants	Lawn, garden, and houseplant care	354	9	True	False	False	True	0.4088640551781282
video_on	action	29	meg	3	Yi7IU2WDXTM	Vacuuming floor	Housework	Household Activities	Housework	Interior cleaning	160	6	True	False	False	True	0.576396630553063
video_on	action	29	meg	3	pnfNPLO0UK4	Using the rowing machine	Participating_in_sports&Exercise&Recreation	Sports, Exercise, and Recreation	Participating in Sports, Exercise, or Recreation	Using cardiovascular equipment	384	1	True	True	True	True	0.3352160847280174
video_on	action	29	meg	3	1hBK-wO3JFE	Playing saxophone	Arts&Entertainment	Socializing, Relaxing, and Leisure	Arts and Entertainment	Playing musical instruments	109	2	True	False	False	True	0.4036758479778655
video_on	action	29	meg	3	OArTEooCeh0	Cleaning windows	Housework	Household Activities	Housework	Interior cleaning	143	6	True	False	False	True	0.4176061557081993
video_on	action	29	meg	3	N9bBIkOSv5M	Carving jack-o-lanterns	Interior_maintenance&Repair&Decoration	Household Activities	Interior Maintenance, Repair, & Decoration	Interior arrangement, decoration, & repairs	295	7	True	False	False	True	0.3848854636889882
video_on	action	29	meg	3	m-2TSJ7iD0w	Wakeboarding	Participating_in_sports&Exercise&Recreation	Sports, Exercise, and Recreation	Participating in Sports, Exercise, or Recreation	Participating in water sports	385	1	True	True	False	False	0.345373342919629
video_on	action	29	meg	3	TubAw0eNzBA	Playing pool	Relaxing&Leisure	Socializing, Relaxing, and Leisure	Relaxing and Leisure	Playing games	348	3	True	False	False	True	0.4733488191850483
video_on	action	29	meg	3	0Vn09ijyUTM	Rollerblading	Participating_in_sports&Exercise&Recreation	Sports, Exercise, and Recreation	Participating in Sports, Exercise, or Recreation	Playing sports	359	1	True	True	False	False	0.5293797666963656
video_on	action	29	meg	3	Y34oqcxYmWc	Tango	Arts&Entertainment	Socializing, Relaxing, and Leisure	Arts and Entertainment	Dancing	73	2	True	False	False	True	0.4176819245913066
video_on	action	29	meg	3	YZV5MDfshR4	Doing motocross	Participating_in_sports&Exercise&Recreation	Sports, Exercise, and Recreation	Participating in Sports, Exercise, or Recreation	Playing sports	243	1	True	True	False	False	0.8757797630678397
video_on	action	29	meg	3	iy5IdWQaHWI	Ping-pong	Participating_in_sports&Exercise&Recreation	Sports, Exercise, and Recreation	Participating in Sports, Exercise, or Recreation	Playing racquet sports	119	1	True	True	True	True	0.3722842813003808
video_on	action	29	meg	3	vt21tcV5mfE	Javelin throw	Participating_in_sports&Exercise&Recreation	Sports, Exercise, and Recreation	Participating in Sports, Exercise, or Recreation	Playing sports	116	1	True	True	True	True	0.4017058566969353
video_on	action	29	meg	3	AIszUk9cXx0	Bungee jumping	Participating_in_sports&Exercise&Recreation	Sports, Exercise, and Recreation	Participating in Sports, Exercise, or Recreation	Playing sports	154	1	True	True	False	False	0.3790020542219281
video_on	action	29	meg	3	tR2bYHrukP0	Using parallel bars	Participating_in_sports&Exercise&Recreation	Sports, Exercise, and Recreation	Participating in Sports, Exercise, or Recreation	Doing gymnastics	88	1	True	True	True	True	0.3959561747615225
video_on	action	29	meg	3	AhsW9qlpDHk	Waterskiing	Participating_in_sports&Exercise&Recreation	Sports, Exercise, and Recreation	Participating in Sports, Exercise, or Recreation	Participating in water sports	386	1	True	True	False	False	0.39464999147458
video_on	action	29	meg	3	5z2BSGe7qUE	Braiding hair	Grooming	Personal Care	Grooming	Washing, dressing and grooming oneself	285	4	True	False	False	True	0.4211322770861443
video_on	action	29	meg	3	cpC2H7Da3ik	Swinging at the playground	Arts&Entertainment	Socializing, Relaxing, and Leisure	Arts and Entertainment	Park activities	378	2	True	False	False	True	0.547643089259509
video_on	action	29	meg	3	3zR3qZKZGkg	Kite flying	Relaxing&Leisure	Socializing, Relaxing, and Leisure	Relaxing and Leisure	Playing games	327	3	True	False	False	True	0.5636807382688858
video_on	action	29	meg	3	ofwZJkM3WRQ	Playing beach volleyball	Participating_in_sports&Exercise&Recreation	Sports, Exercise, and Recreation	Participating in Sports, Exercise, or Recreation	Playing volleyball	341	1	True	True	True	True	0.3799861442530527
video_on	action	29	meg	3	-eFqI18Y224	Shuffleboard	Relaxing&Leisure	Socializing, Relaxing, and Leisure	Relaxing and Leisure	Playing games	368	3	True	False	False	True	0.6136024789593648
video_on	action	29	meg	3	2bZi6mSfHYk	Rope skipping	Participating_in_sports&Exercise&Recreation	Sports, Exercise, and Recreation	Participating in Sports, Exercise, or Recreation	Working out	361	1	True	True	True	True	0.4204491495620459
video_on	action	29	meg	3	eYfQkvhg-eM	Hula hoop	Relaxing&Leisure	Socializing, Relaxing, and Leisure	Relaxing and Leisure	Playing games	322	3	True	False	False	True	0.5658943371090572
video_on	action	29	meg	3	ZhhYdaxcZEI	Playing badminton	Participating_in_sports&Exercise&Recreation	Sports, Exercise, and Recreation	Participating in Sports, Exercise, or Recreation	Playing racquet sports	268	1	True	True	True	True	0.4046246194338891
video_on	action	29	meg	3	tHhpQEgvrTE	Having an ice cream	Food&Drink_prep.&Presentation&Clean-up	Eating and drinking Activities	Food & Drink Prep., Presentation, & Clean-up	Eating and Drinking	320	5	True	False	False	True	0.5188243444717955
video_on	action	29	meg	3	tXyoS-DNpZU	Slacklining	Relaxing&Leisure	Socializing, Relaxing, and Leisure	Relaxing and Leisure	Playing games	371	3	True	False	False	True	0.45364769877051
video_on	action	29	meg	3	qmXtxxEmZiA	Sharpening knives	Appliances&Tools&Toys	Household Activities	Appliances, Tools, and Toys	Appliance, tool, and toy set-up, repair, & maintenance (by self)	365	10	True	False	False	True	0.4380130437202751
video_on	action	29	meg	3	KNOFGj4FnbQ	Clean and jerk	Participating_in_sports&Exercise&Recreation	Sports, Exercise, and Recreation	Participating in Sports, Exercise, or Recreation	Weightlifting	84	1	True	True	False	False	0.4293237701640464
video_on	action	29	meg	3	nZAmpvodUxw	Wrapping presents	Household_management	Household Activities	Household Management	Household & personal organization and planning	179	13	True	False	False	True	0.3727714964188635
video_on	action	29	meg	3	A6Rid1LhlXQ	Running a marathon	Participating_in_sports&Exercise&Recreation	Sports, Exercise, and Recreation	Participating in Sports, Exercise, or Recreation	Running	362	1	True	True	True	True	0.5967778597841971
video_on	action	29	meg	3	wHGl2LeOxzY	Disc dog	Animals&Pets	Household Activities	Animals and Pets	Walking / exercising / playing with animals	303	8	True	False	False	True	0.3730036329943687
video_on	action	29	meg	3	XWVtRV2c4w0	Capoeira	Participating_in_sports&Exercise&Recreation	Sports, Exercise, and Recreation	Participating in Sports, Exercise, or Recreation	Participating in martial arts	294	1	True	True	False	False	0.3979149969818536
video_on	action	29	meg	3	nTZ9HWCPOg4	Skateboarding	Participating_in_sports&Exercise&Recreation	Sports, Exercise, and Recreation	Participating in Sports, Exercise, or Recreation	Playing sports	176	1	True	True	False	False	0.6539628490863834
video_on	action	29	meg	3	6PaTEwG8Ym4	Getting a haircut	Grooming	Personal Care	Grooming	Washing, dressing and grooming	208	4	True	False	False	True	0.4717920853290707
video_on	action	29	meg	3	UeS_-kpCzeM	Grooming dog	Animals&Pets	Household Activities	Animals and Pets	Care for animals and pets (not veterinary care)	317	8	True	False	False	True	0.4863312609959394
video_on	action	29	meg	3	W3J-807egEA	Rafting	Participating_in_sports&Exercise&Recreation	Sports, Exercise, and Recreation	Participating in Sports, Exercise, or Recreation	Boating	353	1	True	True	False	False	0.5745887424563989
video_on	action	29	meg	3	zmu4H9qMqWY	Playing flauta	Arts&Entertainment	Socializing, Relaxing, and Leisure	Arts and Entertainment	Playing musical instruments	149	2	True	False	False	True	0.4629120311001315
video_on	action	29	meg	3	HeBDCJMzjOs	Playing field hockey	Participating_in_sports&Exercise&Recreation	Sports, Exercise, and Recreation	Participating in Sports, Exercise, or Recreation	Playing hockey	94	1	True	True	True	True	0.3908654709812253
video_on	action	29	meg	3	wTU2Yp94YO4	Beer pong	Relaxing&Leisure	Socializing, Relaxing, and Leisure	Relaxing and Leisure	Playing games	280	3	True	False	False	True	0.4143544324033428
video_on	action	29	meg	3	HrvhpY2BXEw	Playing polo	Participating_in_sports&Exercise&Recreation	Sports, Exercise, and Recreation	Participating in Sports, Exercise, or Recreation	Participating in equestrian sports	75	1	True	True	False	False	0.9890412819804624
video_on	action	29	meg	3	B75IwA8oN80	Belly dance	Arts&Entertainment	Socializing, Relaxing, and Leisure	Arts and Entertainment	Dancing	247	2	True	False	False	True	0.0053460842464119
video_on	action	29	meg	3	Emx6JlPcmXg	Painting	Interior_maintenance&Repair&Decoration	Household Activities	Interior Maintenance, Repair, & Decoration	Interior arrangement, decoration, & repairs	217	7	True	False	False	True	0.4229323166655376
video_on	action	29	meg	3	M5hg2CucU6s	Walking the dog	Animals&Pets	Household Activities	Animals and Pets	Walking / exercising / playing with animals	221	8	True	False	False	True	0.503675998916151
video_on	action	29	meg	3	UraZRXGgDqg	Arm wrestling	Participating_in_sports&Exercise&Recreation	Sports, Exercise, and Recreation	Participating in Sports, Exercise, or Recreation	Wrestling	271	1	True	True	False	False	0.6390949390479364
video_on	action	29	meg	3	H4i2Gpz2UHo	Hitting a pinata	Relaxing&Leisure	Socializing, Relaxing, and Leisure	Relaxing and Leisure	Playing games	321	3	True	False	True	False	0.6180858241277747
video_on	action	29	meg	3	omPuzxMNSj4	Playing guitarra	Arts&Entertainment	Socializing, Relaxing, and Leisure	Arts and Entertainment	Playing musical instruments	251	2	True	False	False	True	0.4315265017503407
video_on	action	29	meg	3	1RbUF7pWDMY	Putting on makeup	Grooming	Personal Care	Grooming	Washing, dressing and grooming oneself	76	4	True	False	False	True	0.3756425640021916
video_on	action	29	meg	3	Ux-RIBExEbE	Playing piano	Arts&Entertainment	Socializing, Relaxing, and Leisure	Arts and Entertainment	Playing musical instruments	197	2	True	False	False	True	0.4404116877412889
video_on	action	29	meg	3	KoSToEUQJfc	Skiing	Participating_in_sports&Exercise&Recreation	Sports, Exercise, and Recreation	Participating in Sports, Exercise, or Recreation	Skiing, ice skating, snowboarding	369	1	True	True	False	False	0.367747807293199
video_on	action	29	meg	3	6mMLRMeS4wU	Playing racquetball	Participating_in_sports&Exercise&Recreation	Sports, Exercise, and Recreation	Participating in Sports, Exercise, or Recreation	Playing racquet sports	253	1	True	True	False	False	0.4167606231058016
video_on	action	29	meg	3	ylEhWHzVOoo	Rock climbing	Participating_in_sports&Exercise&Recreation	Sports, Exercise, and Recreation	Participating in Sports, Exercise, or Recreation	Climbing, spelunking, caving	188	1	True	True	True	True	0.3440273130254354
video_on	action	29	meg	3	1sCZZv7WQuM	Ironing clothes	Housework	Household Activities	Housework	Laundry	83	6	True	False	False	True	0.1685706997814122
video_on	action	29	meg	3	w5PAJ653HFE	Polishing forniture	Housework	Household Activities	Housework	Interior cleaning	156	6	True	False	False	True	0.432656695949845
video_on	action	29	meg	3	lS2PZQN317E	Powerbocking	Participating_in_sports&Exercise&Recreation	Sports, Exercise, and Recreation	Participating in Sports, Exercise, or Recreation	Playing sports	350	1	True	True	False	False	0.6349041040521115
video_on	action	29	meg	3	2quWng_KAUU	Elliptical trainer	Participating_in_sports&Exercise&Recreation	Sports, Exercise, and Recreation	Participating in Sports, Exercise, or Recreation	Using cardiovascular equipment	308	1	True	True	True	True	0.43285532516893
video_on	action	29	meg	3	t6GrsJT2YDQ	Doing fencing	Participating_in_sports&Exercise&Recreation	Sports, Exercise, and Recreation	Participating in Sports, Exercise, or Recreation	Fencing	309	1	True	True	True	True	0.353007285593776
video_on	action	29	meg	3	J4DlkmIo1DA	Washing dishes	Food&Drink_prep.&Presentation&Clean-up	Eating and drinking Activities	Food & Drink Prep., Presentation, & Clean-up	Kitchen and food clean-up	213	5	True	False	False	True	0.4012986365996767
video_on	action	29	meg	3	9XHGhRpuaFk	Polishing shoes	Housework	Household Activities	Housework	Sewing, repairing, & maintaining textiles	227	6	True	False	False	True	0.3439639207499567
video_on	action	29	meg	3	_wY-2Uy7rck	Doing nails	Grooming	Personal Care	Grooming	Washing, dressing and grooming oneself	167	4	True	False	False	True	0.4173924330680165
video_on	action	29	meg	3	7hDr2fbuKv8	Preparing salad	Food&Drink_prep.&Presentation&Clean-up	Eating and drinking Activities	Food & Drink Prep., Presentation, & Clean-up	Food and drink preparation	96	5	True	False	False	True	0.3536792439990677
video_on	action	29	meg	3	MgMfANuttJw	Using the pommel horse	Participating_in_sports&Exercise&Recreation	Sports, Exercise, and Recreation	Participating in Sports, Exercise, or Recreation	Doing gymnastics	114	1	True	True	True	True	0.4724241971562151
video_on	action	29	meg	3	iVr_NtwNI4w	Hand car wash	Vehicles	Household Activities	Vehicles	Vehicle repair and maintenance (by self)	318	11	True	False	False	True	0.3860558063606731
video_on	action	29	meg	3	XDjZmu5PMdU	Making a cake	Food&Drink_prep.&Presentation&Clean-up	Eating and drinking Activities	Food & Drink Prep., Presentation, & Clean-up	Food and drink preparation	332	5	True	False	False	True	0.5881933344353456
video_on	action	29	meg	3	p6mvWjOaIEM	Cutting the grass	Lawn&Garden&Houseplants	Household Activities	Lawn, Garden, and Houseplants	Lawn, garden, and houseplant care	301	9	True	False	False	True	0.5143071900529321
video_on	action	29	meg	3	ndoW2SHGPKA	Canoeing	Participating_in_sports&Exercise&Recreation	Sports, Exercise, and Recreation	Participating in Sports, Exercise, or Recreation	Boating	292	1	True	True	False	False	0.514239571581129
video_on	action	29	meg	3	B0LtgLi0MvI	Baking cookies	Food&Drink_prep.&Presentation&Clean-up	Eating and drinking Activities	Food & Drink Prep., Presentation, & Clean-up	Food and drink preparation	276	5	True	False	False	True	0.3887403194676153
video_on	action	29	meg	3	ZRnp0V9WtcM	Riding bumper cars	Relaxing&Leisure	Socializing, Relaxing, and Leisure	Relaxing and Leisure	Playing games	356	3	True	False	False	True	0.3708815001591574
video_on	action	29	meg	3	iAv5zBHJ2FM	Scuba diving	Participating_in_sports&Exercise&Recreation	Sports, Exercise, and Recreation	Participating in Sports, Exercise, or Recreation	Participating in water sports	364	1	True	True	False	False	0.3947604752029292
video_on	action	29	meg	3	FxMhUd_nsmc	Drum corps	Arts&Entertainment	Socializing, Relaxing, and Leisure	Arts and Entertainment	Playing musical instruments	307	2	True	False	False	True	0.7231407565705013
video_on	action	29	meg	3	vN9XO39NZxQ	Playing drums	Arts&Entertainment	Socializing, Relaxing, and Leisure	Arts and Entertainment	Playing musical instruments	346	2	True	False	False	True	0.4192350360099226
video_on	action	29	meg	3	2TZA_3RWGHE	Futsal	Participating_in_sports&Exercise&Recreation	Sports, Exercise, and Recreation	Participating in Sports, Exercise, or Recreation	Playing soccer	315	1	True	True	True	True	0.4673307765042409
video_on	action	29	meg	3	ZsO32V7IoDg	Preparing pasta	Food&Drink_prep.&Presentation&Clean-up	Eating and drinking Activities	Food & Drink Prep., Presentation, & Clean-up	Food and drink preparation	186	5	True	False	False	True	0.0823785999673418
video_on	action	29	meg	3	vbnD3RJd0oA	Smoking a cigarette	Relaxing&Leisure	Socializing, Relaxing, and Leisure	Relaxing and Leisure	Tobacco and drug use	201	3	True	False	False	True	0.3797368012019433
video_on	action	29	meg	3	LAsxaaKXxUA	Trimming branches or hedges	Lawn&Garden&Houseplants	Household Activities	Lawn, Garden, and Houseplants	Lawn, garden, and houseplant care	381	9	True	False	False	True	0.8998353309580125
video_on	action	29	meg	3	tcki8ZrqlE4	Plastering	Interior_maintenance&Repair&Decoration	Household Activities	Interior Maintenance, Repair, & Decoration	Interior arrangement, decoration, & repairs	340	7	True	False	False	True	0.7400070335133933
video_on	action	29	meg	3	1IDMsyCOL3g	Using the monkey bar	Arts&Entertainment	Socializing, Relaxing, and Leisure	Arts and Entertainment	Park activities	383	2	True	False	False	True	0.6521827328542713
video_on	action	29	meg	3	FqhIewWCv4c	Camel ride	Participating_in_sports&Exercise&Recreation	Sports, Exercise, and Recreation	Participating in Sports, Exercise, or Recreation	Playing sports	291	1	True	True	False	False	0.4277742811245844
video_on	action	29	meg	3	W9d-VjdlFqw	Spread mulch	Lawn&Garden&Houseplants	Household Activities	Lawn, Garden, and Houseplants	Lawn, garden, and houseplant care	374	9	True	False	False	True	0.3806590082531329
video_on	action	29	meg	3	rQvAlMXmuwY	Doing kickboxing	Participating_in_sports&Exercise&Recreation	Sports, Exercise, and Recreation	Participating in Sports, Exercise, or Recreation	Participating in martial arts	70	1	True	True	True	True	0.3154186684114393
video_on	action	29	meg	3	lt-B1IAe_Rk	Windsurfing	Participating_in_sports&Exercise&Recreation	Sports, Exercise, and Recreation	Participating in Sports, Exercise, or Recreation	Participating in water sports	237	1	True	True	True	True	0.3727890047593973
video_on	action	29	meg	3	oxhZve66A04	Kayaking	Participating_in_sports&Exercise&Recreation	Sports, Exercise, and Recreation	Participating in Sports, Exercise, or Recreation	Participating in water sports	254	1	True	True	False	False	0.3249021570081822
video_on	action	29	meg	3	2HIsBVVj2fo	Archery	Participating_in_sports&Exercise&Recreation	Sports, Exercise, and Recreation	Participating in Sports, Exercise, or Recreation	Playing sports	250	1	True	True	True	True	0.735330492752837
video_on	action	29	meg	3	ZKsV0fAXfdY	Long jump	Participating_in_sports&Exercise&Recreation	Sports, Exercise, and Recreation	Participating in Sports, Exercise, or Recreation	Playing sports	80	1	True	True	True	True	0.4453179501288105
video_on	action	29	meg	3	2Qc9kr3nFAc	Horseback riding	Participating_in_sports&Exercise&Recreation	Sports, Exercise, and Recreation	Participating in Sports, Exercise, or Recreation	Participating in equestrian sports	175	1	True	True	False	False	0.3755833978648297
video_on	action	29	meg	3	hnho6Ni0Q0Y	Sailing	Participating_in_sports&Exercise&Recreation	Sports, Exercise, and Recreation	Participating in Sports, Exercise, or Recreation	Participating in water sports	240	1	False	True	False	False	0.0
video_on	action	29	meg	3	UqqstDSnd6I	Starting a campfire	Participating_in_sports&Exercise&Recreation	Sports, Exercise, and Recreation	Participating in Sports, Exercise, or Recreation	Playing sports	153	1	True	True	False	False	0.0050967411661986
video_on	action	29	eeg	3	0KjlcJuKW6w	Snowboarding	Participating_in_sports&Exercise&Recreation	Sports, Exercise, and Recreation	Participating in Sports, Exercise, or Recreation	Skiing, ice skating, snowboarding	373	1	True	True	True	True	0.5190834999666549
video_on	action	29	eeg	3	RB4wORclQtg	Ballet	Arts&Entertainment	Socializing, Relaxing, and Leisure	Arts and Entertainment	Attending arts and entertainment	229	2	True	False	False	True	0.7754586000228301
video_on	action	29	eeg	3	rLV8M9LvYUE	Powerbocking	Participating_in_sports&Exercise&Recreation	Sports, Exercise, and Recreation	Participating in Sports, Exercise, or Recreation	Playing sports	350	1	True	True	False	False	0.4701237000408582
video_on	action	29	eeg	3	OtRsOADDd7Q	Spinning	Participating_in_sports&Exercise&Recreation	Sports, Exercise, and Recreation	Participating in Sports, Exercise, or Recreation	Using cardiovascular equipment	117	1	True	True	True	True	0.6899240999482572
video_on	action	29	eeg	3	VV92vu9WJyo	Cricket	Participating_in_sports&Exercise&Recreation	Sports, Exercise, and Recreation	Participating in Sports, Exercise, or Recreation	Playing sports	82	1	True	True	True	True	0.5399357000133023
