event_name	task	subject	session	run	video_id	class_name	raw_superclass_name	superclass_level0	superclass_level1	superclass_level2	class_id	superclass_id	is_resp	stim_is_sports	resp_is_sports	resp_is_right	resp_time
video_on	action	16	meg	1	o2K9hmeqxAA	Playing polo	Participating_in_sports&Exercise&Recreation	Sports, Exercise, and Recreation	Participating in Sports, Exercise, or Recreation	Participating in equestrian sports	75	1	True	True	False	False	0.6036287675142376
video_on	action	16	meg	1	Ke29p3rcs1k	Polishing forniture	Housework	Household Activities	Housework	Interior cleaning	156	6	True	False	False	True	0.2511936655810132
video_on	action	16	meg	1	d-yzY7PCQrg	Sumo	Participating_in_sports&Exercise&Recreation	Sports, Exercise, and Recreation	Participating in Sports, Exercise, or Recreation	Wrestling	375	1	True	True	False	False	0.4198412470814219
video_on	action	16	meg	1	4gDyvghvC-w	Tumbling	Participating_in_sports&Exercise&Recreation	Sports, Exercise, and Recreation	Participating in Sports, Exercise, or Recreation	Doing gymnastics	258	1	True	True	True	True	0.3319925317591696
video_on	action	16	meg	1	Z56GFgUpn6E	Hand washing clothes	Housework	Household Activities	Housework	Laundry	232	6	True	False	False	True	0.2761823832242953
video_on	action	16	meg	1	arRlSBgsPbo	Ice fishing	Participating_in_sports&Exercise&Recreation	Sports, Exercise, and Recreation	Participating in Sports, Exercise, or Recreation	Fishing	324	1	True	True	False	False	0.3324580137923476
video_on	action	16	meg	1	8U1GOh0Q10k	Futsal	Participating_in_sports&Exercise&Recreation	Sports, Exercise, and Recreation	Participating in Sports, Exercise, or Recreation	Playing soccer	315	1	True	True	True	True	0.0051200004818383
video_on	action	16	meg	1	kCoh0gjLh1A	Waterskiing	Participating_in_sports&Exercise&Recreation	Sports, Exercise, and Recreation	Participating in Sports, Exercise, or Recreation	Participating in water sports	386	1	True	True	True	True	0.5088277067461604
video_on	action	16	meg	1	snYgRBgcJoQ	Disc dog	Animals&Pets	Household Activities	Animals and Pets	Walking / exercising / playing with animals	303	8	True	False	False	True	0.3889863087297271
video_on	action	16	meg	1	D8Wo6g6-eCU	Hammer throw	Participating_in_sports&Exercise&Recreation	Sports, Exercise, and Recreation	Participating in Sports, Exercise, or Recreation	Playing sports	224	1	True	True	True	True	0.3409411370503221
video_on	action	16	meg	1	zrZGdH6DlyM	Playing drums	Arts&Entertainment	Socializing, Relaxing, and Leisure	Arts and Entertainment	Playing musical instruments	346	2	True	False	False	True	0.3000049808397307
video_on	action	16	meg	1	PirkT09Of3I	Playing piano	Arts&Entertainment	Socializing, Relaxing, and Leisure	Arts and Entertainment	Playing musical instruments	197	2	True	False	False	True	0.3172948309456842
video_on	action	16	meg	1	1b_q9gR8vJM	Playing pool	Relaxing&Leisure	Socializing, Relaxing, and Leisure	Relaxing and Leisure	Playing games	348	3	True	False	True	False	0.3597047117218608
video_on	action	16	meg	1	NX1W9ByQE_4	Ping-pong	Participating_in_sports&Exercise&Recreation	Sports, Exercise, and Recreation	Participating in Sports, Exercise, or Recreation	Playing racquet sports	119	1	True	True	True	True	0.3569305354103562
video_on	action	16	meg	1	v_H-LniZ7PI	Doing nails	Grooming	Personal Care	Grooming	Washing, dressing and grooming oneself	167	4	True	False	False	True	0.2697181599869509
video_on	action	16	meg	1	tLkMQOiRDcI	Hand car wash	Vehicles	Household Activities	Vehicles	Vehicle repair and maintenance (by self)	318	11	True	False	False	True	0.392148990475107
video_on	action	16	meg	1	DdKVN9JcA2s	Throwing darts	Relaxing&Leisure	Socializing, Relaxing, and Leisure	Relaxing and Leisure	Playing games	380	3	True	False	False	True	0.3262479642708058
video_on	action	16	meg	1	VT5r3JnGf6k	Walking the dog	Animals&Pets	Household Activities	Animals and Pets	Walking / exercising / playing with animals	221	8	True	False	False	True	0.3101399313854927
video_on	action	16	meg	1	IC61TQ-sd8o	Cheerleading	Arts&Entertainment	Socializing, Relaxing, and Leisure	Arts and Entertainment	Dancing	140	2	True	False	False	True	0.3023649928527447
video_on	action	16	meg	1	Ll79Ofb83UE	Swinging at the playground	Arts&Entertainment	Socializing, Relaxing, and Leisure	Arts and Entertainment	Park activities	378	2	True	False	False	True	0.3027275375497993
video_on	action	16	meg	1	kYfYagHTVSY	Calf roping	Participating_in_sports&Exercise&Recreation	Sports, Exercise, and Recreation	Participating in Sports, Exercise, or Recreation	Participating in rodeo competitions	290	1	True	True	False	False	0.4135967844922561
video_on	action	16	meg	1	QA_-wI7RxBk	Camel ride	Participating_in_sports&Exercise&Recreation	Sports, Exercise, and Recreation	Participating in Sports, Exercise, or Recreation	Playing sports	291	1	True	True	False	False	0.3422207598341629
video_on	action	16	meg	1	XlUhb4zHbP4	Using the monkey bar	Arts&Entertainment	Socializing, Relaxing, and Leisure	Arts and Entertainment	Park activities	383	2	True	False	True	False	0.2864423075461673
video_on	action	16	meg	1	gWhahIwxVpM	Bullfighting	Participating_in_sports&Exercise&Recreation	Sports, Exercise, and Recreation	Participating in Sports, Exercise, or Recreation	Participating in rodeo competitions	288	1	True	True	False	False	0.2951762839620642
video_on	action	16	meg	1	s4yzn64z6fU	Snatch	Participating_in_sports&Exercise&Recreation	Sports, Exercise, and Recreation	Participating in Sports, Exercise, or Recreation	Weightlifting	79	1	True	True	True	True	0.422818581244428
video_on	action	16	meg	1	7lPDedXnBPw	Beer pong	Relaxing&Leisure	Socializing, Relaxing, and Leisure	Relaxing and Leisure	Playing games	280	3	True	False	False	True	0.3823753771484917
video_on	action	16	meg	1	w9xyjpdzrBI	Sharpening knives	Appliances&Tools&Toys	Household Activities	Appliances, Tools, and Toys	Appliance, tool, and toy set-up, repair, & maintenance (by self)	365	10	True	False	False	True	0.3676287735506776
video_on	action	16	meg	1	uR32CSHxdME	Playing lacrosse	Participating_in_sports&Exercise&Recreation	Sports, Exercise, and Recreation	Participating in Sports, Exercise, or Recreation	Playing racquet sports	209	1	True	True	True	True	0.3439073020599608
video_on	action	16	meg	1	FAOtXHluR9E	Wrapping presents	Household_management	Household Activities	Household Management	Household & personal organization and planning	179	13	True	False	False	True	0.4307719243679457
video_on	action	16	meg	1	LjOfQvsG2-Q	Arm wrestling	Participating_in_sports&Exercise&Recreation	Sports, Exercise, and Recreation	Participating in Sports, Exercise, or Recreation	Wrestling	271	1	True	True	False	False	0.3276160346795222
video_on	action	16	meg	1	PSZoN-gXUSM	Canoeing	Participating_in_sports&Exercise&Recreation	Sports, Exercise, and Recreation	Participating in Sports, Exercise, or Recreation	Boating	292	1	True	True	True	True	0.378291391147286
video_on	action	16	meg	1	PNRDPKTyLBQ	Making an omelette	Food&Drink_prep.&Presentation&Clean-up	Eating and drinking Activities	Food & Drink Prep., Presentation, & Clean-up	Food and drink preparation	334	5	True	False	False	True	0.3513447510267724
video_on	action	16	meg	1	nk2Hirgb08Y	Playing blackjack	Arts&Entertainment	Socializing, Relaxing, and Leisure	Arts and Entertainment	Attending gambling establishments	343	2	True	False	False	True	0.9903507567105408
video_on	action	16	meg	1	hIXkwMcvOYk	Croquet	Participating_in_sports&Exercise&Recreation	Sports, Exercise, and Recreation	Participating in Sports, Exercise, or Recreation	Playing sports	299	1	True	True	False	False	0.3262425306274963
video_on	action	16	meg	1	0f9ionoZDfo	Rollerblading	Participating_in_sports&Exercise&Recreation	Sports, Exercise, and Recreation	Participating in Sports, Exercise, or Recreation	Playing sports	359	1	True	True	False	False	0.3849654133573494
video_on	action	16	meg	1	w3JDaXOECK4	Getting a haircut	Grooming	Personal Care	Grooming	Washing, dressing and grooming	208	4	True	False	False	True	0.4107646493266657
video_on	action	16	meg	1	Y90bJMQqKjk	Welding	Appliances&Tools&Toys	Household Activities	Appliances, Tools, and Toys	Appliance, tool, and toy set-up, repair, & maintenance (by self)	388	10	True	False	False	True	0.3949307135135314
video_on	action	16	meg	1	jRkNogj5FW4	Building sandcastles	Arts&Entertainment	Socializing, Relaxing, and Leisure	Arts and Entertainment	Beach activities	286	2	True	False	False	True	0.3215167710895912
video_on	action	16	meg	1	jEEDUvW0xkA	Beach soccer	Participating_in_sports&Exercise&Recreation	Sports, Exercise, and Recreation	Participating in Sports, Exercise, or Recreation	Playing soccer	278	1	True	True	True	True	0.3636265940567682
video_on	action	16	meg	1	5GaLOD1TGt4	Fixing the roof	Exterior_maintenance&Repair&Decoration	Household Activities	Exterior Maintenance, Repair, & Decoration	Exterior repair, improvements, & decoration	311	12	True	False	False	True	0.3696534090813657
video_on	action	16	meg	1	dJVLoNBhWX8	Hurling	Participating_in_sports&Exercise&Recreation	Sports, Exercise, and Recreation	Participating in Sports, Exercise, or Recreation	Playing sports	323	1	True	True	True	True	0.2900411900282051
video_on	action	16	meg	1	Ag2dQa9bn14	High jump	Participating_in_sports&Exercise&Recreation	Sports, Exercise, and Recreation	Participating in Sports, Exercise, or Recreation	Playing sports	195	1	True	True	True	True	0.444319202340921
video_on	action	16	meg	1	bfd5QcUp4rA	Snowboarding	Participating_in_sports&Exercise&Recreation	Sports, Exercise, and Recreation	Participating in Sports, Exercise, or Recreation	Skiing, ice skating, snowboarding	373	1	True	True	True	True	0.4022688475688483
video_on	action	16	meg	1	uyQ8aOrvJ5I	Kayaking	Participating_in_sports&Exercise&Recreation	Sports, Exercise, and Recreation	Participating in Sports, Exercise, or Recreation	Participating in water sports	254	1	True	True	True	True	0.3052004485762154
video_on	action	16	meg	1	27eo4hL6tyU	Playing violin	Arts&Entertainment	Socializing, Relaxing, and Leisure	Arts and Entertainment	Playing musical instruments	234	2	True	False	False	True	0.3299675943599141
video_on	action	16	meg	1	kV3cvPkToNA	Spinning	Participating_in_sports&Exercise&Recreation	Sports, Exercise, and Recreation	Participating in Sports, Exercise, or Recreation	Using cardiovascular equipment	117	1	True	True	False	False	0.3940568026937399
video_on	action	16	meg	1	NH7BPL5loEI	Hanging wallpaper	Interior_maintenance&Repair&Decoration	Household Activities	Interior Maintenance, Repair, & Decoration	Interior arrangement, decoration, & repairs	319	7	True	False	False	True	0.4823374925854296
video_on	action	16	meg	1	gzqBmZKPit8	Playing accordion	Arts&Entertainment	Socializing, Relaxing, and Leisure	Arts and Entertainment	Playing musical instruments	267	2	True	False	False	True	0.3223767959316319
video_on	action	16	meg	1	f1mU_ivlFQA	Chopping wood	Interior_maintenance&Repair&Decoration	Household Activities	Interior Maintenance, Repair, & Decoration	Heating and cooling	110	7	True	False	False	True	0.4352685653229855
video_on	action	16	meg	1	vWWzgNkxffc	Playing kickball	Participating_in_sports&Exercise&Recreation	Sports, Exercise, and Recreation	Participating in Sports, Exercise, or Recreation	Playing sports	257	1	True	True	True	True	0.381560632657056
video_on	action	16	meg	1	3b5_bAQvdT4	Running a marathon	Participating_in_sports&Exercise&Recreation	Sports, Exercise, and Recreation	Participating in Sports, Exercise, or Recreation	Running	362	1	True	True	True	True	0.3948516238287993
video_on	action	16	meg	1	_5dUgrIzuFA	Playing water polo	Participating_in_sports&Exercise&Recreation	Sports, Exercise, and Recreation	Participating in Sports, Exercise, or Recreation	Participating in water sports	130	1	True	True	True	True	0.4669047407023754
video_on	action	16	meg	1	U840Qny7P-Q	Cutting the grass	Lawn&Garden&Houseplants	Household Activities	Lawn, Garden, and Houseplants	Lawn, garden, and houseplant care	301	9	True	False	False	True	0.4497963138765044
video_on	action	16	meg	1	1mK_QXlug0U	Cleaning windows	Housework	Household Activities	Housework	Interior cleaning	143	6	True	False	False	True	0.4192036997064861
video_on	action	16	meg	1	yhZmzmt3Hzs	Baton twirling	Participating_in_sports&Exercise&Recreation	Sports, Exercise, and Recreation	Participating in Sports, Exercise, or Recreation	Playing sports	277	1	True	True	True	True	0.3823128902604367
video_on	action	16	meg	1	56dlo0VJxjU	Waxing skis	Appliances&Tools&Toys	Household Activities	Appliances, Tools, and Toys	Appliance, tool, and toy set-up, repair, & maintenance (by self)	387	10	True	False	False	True	0.4504543883449514
video_on	action	16	meg	1	kLOiDBPBSNQ	Kite flying	Relaxing&Leisure	Socializing, Relaxing, and Leisure	Relaxing and Leisure	Playing games	327	3	True	False	False	True	0.4585897584893246
video_on	action	16	meg	1	IiOagPSsUrI	Preparing pasta	Food&Drink_prep.&Presentation&Clean-up	Eating and drinking Activities	Food & Drink Prep., Presentation, & Clean-up	Food and drink preparation	186	5	True	False	False	True	0.6367253852222348
video_on	action	16	meg	1	w_RjdRkdrz8	Painting fence	Exterior_maintenance&Repair&Decoration	Household Activities	Exterior Maintenance, Repair, & Decoration	Painting fence	336	12	True	False	False	True	0.3583185291736299
video_on	action	16	meg	1	Zb9EQoVV4UE	Clean and jerk	Participating_in_sports&Exercise&Recreation	Sports, Exercise, and Recreation	Participating in Sports, Exercise, or Recreation	Weightlifting	84	1	True	True	True	True	0.3502800589849357
video_on	action	16	meg	1	0-mMhJOQjWE	Tug of war	Relaxing&Leisure	Socializing, Relaxing, and Leisure	Relaxing and Leisure	Playing games	382	3	True	False	False	True	0.4524017454077693
video_on	action	16	meg	1	IcTndj5JfPE	Playing harmonica	Arts&Entertainment	Socializing, Relaxing, and Leisure	Arts and Entertainment	Playing musical instruments	100	2	True	False	False	True	0.3725616152405564
video_on	action	16	meg	1	DeF5mG8YV2o	Carving jack-o-lanterns	Interior_maintenance&Repair&Decoration	Household Activities	Interior Maintenance, Repair, & Decoration	Interior arrangement, decoration, & repairs	295	7	True	False	False	True	0.4686827492423617
video_on	action	16	meg	1	FeTQ8466Ftc	Washing hands	Grooming	Personal Care	Grooming	Washing, dressing and grooming oneself	173	4	True	False	False	True	0.4129073156454979
video_on	action	16	meg	1	KTVlnIJVGWk	Hula hoop	Relaxing&Leisure	Socializing, Relaxing, and Leisure	Relaxing and Leisure	Playing games	322	3	True	False	False	True	0.3331106546174851
video_on	action	16	meg	1	q-wFBfLlX6w	Playing beach volleyball	Participating_in_sports&Exercise&Recreation	Sports, Exercise, and Recreation	Participating in Sports, Exercise, or Recreation	Playing volleyball	341	1	True	True	True	True	0.4701187401788047
video_on	action	16	meg	1	necdMCfAjLw	Drum corps	Arts&Entertainment	Socializing, Relaxing, and Leisure	Arts and Entertainment	Playing musical instruments	307	2	True	False	False	True	0.3016142445958394
video_on	action	16	meg	1	wsgH_ezcd9s	Polishing shoes	Housework	Household Activities	Housework	Sewing, repairing, & maintaining textiles	227	6	True	False	False	True	0.4134784518355445
video_on	action	16	meg	1	MAneChbQnTo	Pole vault	Participating_in_sports&Exercise&Recreation	Sports, Exercise, and Recreation	Participating in Sports, Exercise, or Recreation	Playing sports	106	1	True	True	True	True	0.2857724601872178
video_on	action	16	meg	1	SnCGukXMUwM	Powerbocking	Participating_in_sports&Exercise&Recreation	Sports, Exercise, and Recreation	Participating in Sports, Exercise, or Recreation	Playing sports	350	1	True	True	True	True	0.3499310983952455
video_on	action	16	meg	1	AdkfKt55WAQ	Drinking coffee	Food&Drink_prep.&Presentation&Clean-up	Eating and drinking Activities	Food & Drink Prep., Presentation, & Clean-up	Eating and Drinking	68	5	True	False	False	True	0.3328145211071387
video_on	action	16	meg	1	H1z_uDhGhLA	Tai chi	Participating_in_sports&Exercise&Recreation	Sports, Exercise, and Recreation	Participating in Sports, Exercise, or Recreation	Participating in martial arts	263	1	True	True	False	False	0.4063884541137668
video_on	action	16	meg	1	R7gUQgf2TVc	BMX	Participating_in_sports&Exercise&Recreation	Sports, Exercise, and Recreation	Participating in Sports, Exercise, or Recreation	Biking	274	1	True	True	False	False	0.4084242587978224
video_on	action	16	meg	1	-EkXYmoV57Y	Slacklining	Relaxing&Leisure	Socializing, Relaxing, and Leisure	Relaxing and Leisure	Playing games	371	3	True	False	False	True	0.414567897134475
video_on	action	16	meg	1	ApAHQiT8Bqs	Playing racquetball	Participating_in_sports&Exercise&Recreation	Sports, Exercise, and Recreation	Participating in Sports, Exercise, or Recreation	Playing racquet sports	253	1	True	True	True	True	0.575371110227934
video_on	action	16	meg	1	6l8fBbbh5l0	Doing motocross	Participating_in_sports&Exercise&Recreation	Sports, Exercise, and Recreation	Participating in Sports, Exercise, or Recreation	Playing sports	243	1	True	True	False	False	0.345050178179008
video_on	action	16	meg	1	MSN2ZmZcvzs	Discus throw	Participating_in_sports&Exercise&Recreation	Sports, Exercise, and Recreation	Participating in Sports, Exercise, or Recreation	Playing sports	92	1	True	True	True	True	0.5103636163294141
video_on	action	16	meg	1	lNXxJ_cuR2M	Playing congas	Arts&Entertainment	Socializing, Relaxing, and Leisure	Arts and Entertainment	Playing musical instruments	345	2	True	False	False	True	0.3271529675985221
video_on	action	16	meg	1	mOhogoVrwhY	Laying tile	Interior_maintenance&Repair&Decoration	Household Activities	Interior Maintenance, Repair, & Decoration	Interior arrangement, decoration, & repairs	330	7	True	False	False	True	0.4634238890084816
video_on	action	16	meg	1	iX3QqIeaIOY	Ballet	Arts&Entertainment	Socializing, Relaxing, and Leisure	Arts and Entertainment	Attending arts and entertainment	229	2	True	False	False	True	0.3697337062421866
video_on	action	16	meg	1	jY1y5ucVEZM	Spread mulch	Lawn&Garden&Houseplants	Household Activities	Lawn, Garden, and Houseplants	Lawn, garden, and houseplant care	374	9	True	False	False	True	0.375698638117683
video_on	action	16	meg	1	6Tn1HskoRWk	Playing saxophone	Arts&Entertainment	Socializing, Relaxing, and Leisure	Arts and Entertainment	Playing musical instruments	109	2	True	False	False	True	0.4399324417136085
video_on	action	16	meg	1	e1bPrpgG4G4	Breakdancing	Arts&Entertainment	Socializing, Relaxing, and Leisure	Arts and Entertainment	Dancing	236	2	True	False	False	True	0.3759060221364052
video_on	action	16	meg	1	qBOQ7If8SeM	Kneeling	Participating_in_sports&Exercise&Recreation	Sports, Exercise, and Recreation	Participating in Sports, Exercise, or Recreation	Working out	328	1	True	True	False	False	0.4422263444121199
video_on	action	16	meg	1	KAVAWWjYkTI	Playing bagpipes	Arts&Entertainment	Socializing, Relaxing, and Leisure	Arts and Entertainment	Playing musical instruments	136	2	True	False	False	True	0.4470556450269214
video_on	action	16	meg	1	pZaGZU8QMPM	Plastering	Interior_maintenance&Repair&Decoration	Household Activities	Interior Maintenance, Repair, & Decoration	Interior arrangement, decoration, & repairs	340	7	True	False	False	True	0.4638543542350817
video_on	action	16	meg	1	yZ4WsN-tpFc	Capoeira	Participating_in_sports&Exercise&Recreation	Sports, Exercise, and Recreation	Participating in Sports, Exercise, or Recreation	Participating in martial arts	294	1	True	True	False	False	0.4181305553338461
video_on	action	16	meg	1	g8Drhm8giEs	Plataform diving	Participating_in_sports&Exercise&Recreation	Sports, Exercise, and Recreation	Participating in Sports, Exercise, or Recreation	Participating in water sports	233	1	True	True	False	False	0.5046350478987733
video_on	action	16	meg	1	dHS4uyENaEU	Tango	Arts&Entertainment	Socializing, Relaxing, and Leisure	Arts and Entertainment	Dancing	73	2	True	False	False	True	0.552145609541185
video_on	action	16	meg	1	9BJEk2bmCuQ	Playing guitarra	Arts&Entertainment	Socializing, Relaxing, and Leisure	Arts and Entertainment	Playing musical instruments	251	2	False	False	False	True	0.0
video_on	action	16	eeg	1	jKOxPROXrVU	Getting a haircut	Grooming	Personal Care	Grooming	Washing, dressing and grooming	208	4	True	False	False	True	0.6918293000198901
video_on	action	16	eeg	1	hcM3p8eqS10	Polishing forniture	Housework	Household Activities	Housework	Interior cleaning	156	6	True	False	False	True	0.5753646999946795
video_on	action	16	eeg	1	trUK9bAV6rA	High jump	Participating_in_sports&Exercise&Recreation	Sports, Exercise, and Recreation	Participating in Sports, Exercise, or Recreation	Playing sports	195	1	True	True	True	True	0.6431365000025835
video_on	action	16	eeg	1	xAK0UCIQ3RA	Horseback riding	Participating_in_sports&Exercise&Recreation	Sports, Exercise, and Recreation	Participating in Sports, Exercise, or Recreation	Participating in equestrian sports	175	1	True	True	False	False	0.5650214999914169
video_on	action	16	eeg	1	66yrgT9rsF8	Arm wrestling	Participating_in_sports&Exercise&Recreation	Sports, Exercise, and Recreation	Participating in Sports, Exercise, or Recreation	Wrestling	271	1	True	True	False	False	0.5698730000003707
video_on	action	16	eeg	1	8dXAZhphvU8	Hand car wash	Vehicles	Household Activities	Vehicles	Vehicle repair and maintenance (by self)	318	11	True	False	False	True	0.5586344000184909
video_on	action	16	eeg	1	mRlBVxeEA0k	Cleaning shoes	Housework	Household Activities	Housework	Sewing, repairing, & maintaining textiles	134	6	True	False	False	True	0.564855600008741
video_on	action	16	eeg	1	xPHeG6STEi4	Snatch	Participating_in_sports&Exercise&Recreation	Sports, Exercise, and Recreation	Participating in Sports, Exercise, or Recreation	Weightlifting	79	1	True	True	True	True	0.6135004000097979
video_on	action	16	eeg	1	BJr03xyUXss	Beach soccer	Participating_in_sports&Exercise&Recreation	Sports, Exercise, and Recreation	Participating in Sports, Exercise, or Recreation	Playing soccer	278	1	True	True	True	True	0.7566508000018075
video_on	action	16	eeg	1	2vsJ1LO9bL4	Cleaning windows	Housework	Household Activities	Housework	Interior cleaning	143	6	True	False	False	True	0.5706634999951348
video_on	action	16	eeg	1	IhW-b48hRvY	Playing lacrosse	Participating_in_sports&Exercise&Recreation	Sports, Exercise, and Recreation	Participating in Sports, Exercise, or Recreation	Playing racquet sports	209	1	True	True	True	True	0.5704807000001892
video_on	action	16	eeg	1	a9CMtzymZTg	Washing hands	Grooming	Personal Care	Grooming	Washing, dressing and grooming oneself	173	4	True	False	False	True	0.6753647000005003
video_on	action	16	eeg	1	Jb8YAhQ6EMk	Washing dishes	Food&Drink_prep.&Presentation&Clean-up	Eating and drinking Activities	Food & Drink Prep., Presentation, & Clean-up	Kitchen and food clean-up	213	5	True	False	False	True	0.9245043999981136
video_on	action	16	eeg	1	rX37t-fCJ0A	Calf roping	Participating_in_sports&Exercise&Recreation	Sports, Exercise, and Recreation	Participating in Sports, Exercise, or Recreation	Participating in rodeo competitions	290	1	False	True	False	False	0.0
video_on	action	16	eeg	1	jqktmA8aKyg	Playing rubik cube	Relaxing&Leisure	Socializing, Relaxing, and Leisure	Relaxing and Leisure	Playing games	349	3	True	False	True	False	0.0050712000229395
video_on	action	16	eeg	1	EHiarNe5g-k	Grooming dog	Animals&Pets	Household Activities	Animals and Pets	Care for animals and pets (not veterinary care)	317	8	True	False	False	True	0.6795791999902576
video_on	action	16	eeg	1	RBIhPxbB8RI	Having an ice cream	Food&Drink_prep.&Presentation&Clean-up	Eating and drinking Activities	Food & Drink Prep., Presentation, & Clean-up	Eating and Drinking	320	5	False	False	False	True	0.0
video_on	action	16	eeg	1	Fy3o1DTrTcM	Spinning	Participating_in_sports&Exercise&Recreation	Sports, Exercise, and Recreation	Participating in Sports, Exercise, or Recreation	Using cardiovascular equipment	117	1	True	True	False	False	0.0050696000107564
video_on	action	16	eeg	1	50VYMO_LMTw	Doing kickboxing	Participating_in_sports&Exercise&Recreation	Sports, Exercise, and Recreation	Participating in Sports, Exercise, or Recreation	Participating in martial arts	70	1	True	True	True	True	0.4936150000139605
video_on	action	16	eeg	1	JzSTU3EN-EU	Disc dog	Animals&Pets	Household Activities	Animals and Pets	Walking / exercising / playing with animals	303	8	True	False	False	True	0.4988758000254165
video_on	action	16	eeg	1	Zrh57hhaufc	Rafting	Participating_in_sports&Exercise&Recreation	Sports, Exercise, and Recreation	Participating in Sports, Exercise, or Recreation	Boating	353	1	True	True	True	True	0.7481790999881923
video_on	action	16	eeg	1	790Q0uHOgpw	Brushing hair	Grooming	Personal Care	Grooming	Washing, dressing and grooming oneself	125	4	True	False	False	True	0.7655004000116605
video_on	action	16	eeg	1	v6R4PmEokPk	Kneeling	Participating_in_sports&Exercise&Recreation	Sports, Exercise, and Recreation	Participating in Sports, Exercise, or Recreation	Working out	328	1	True	True	False	False	0.8240017000061926
video_on	action	16	eeg	1	XsMZGH2kjBc	Paintball	Participating_in_sports&Exercise&Recreation	Sports, Exercise, and Recreation	Participating in Sports, Exercise, or Recreation	Playing sports	141	1	True	True	False	False	0.5560688999830745
video_on	action	16	eeg	1	aZPdxrLIlBM	Grooming horse	Animals&Pets	Household Activities	Animals and Pets	Walking / exercising / playing with animals	95	8	True	False	False	True	0.6495586000091862
video_on	action	16	eeg	1	Ag6dBsazTBY	Building sandcastles	Arts&Entertainment	Socializing, Relaxing, and Leisure	Arts and Entertainment	Beach activities	286	2	True	False	False	True	0.6157967000035569
video_on	action	16	eeg	1	Knp5rgRW7vM	Playing harmonica	Arts&Entertainment	Socializing, Relaxing, and Leisure	Arts and Entertainment	Playing musical instruments	100	2	True	False	False	True	0.7198405000090133
video_on	action	16	eeg	1	hAc0W60xzJw	Table soccer	Relaxing&Leisure	Socializing, Relaxing, and Leisure	Relaxing and Leisure	Playing games	379	3	True	False	False	True	0.537493199983146
video_on	action	16	eeg	1	2L3rAn1EYF8	Wrapping presents	Household_management	Household Activities	Household Management	Household & personal organization and planning	179	13	True	False	False	True	0.6480728999886196
video_on	action	16	eeg	1	Zh3UB3ni5lg	Scuba diving	Participating_in_sports&Exercise&Recreation	Sports, Exercise, and Recreation	Participating in Sports, Exercise, or Recreation	Participating in water sports	364	1	True	True	False	False	0.4926335000200197
video_on	action	16	eeg	1	dYQpPQFnheE	Bathing dog	Animals&Pets	Household Activities	Animals and Pets	Care for animals and pets (not veterinary care)	90	8	True	False	False	True	0.0050727000052575
video_on	action	16	eeg	1	AJJbqoTehws	Belly dance	Arts&Entertainment	Socializing, Relaxing, and Leisure	Arts and Entertainment	Dancing	247	2	True	False	False	True	0.6379185999976471
video_on	action	16	eeg	1	ZGD9Iu74OuY	Rock climbing	Participating_in_sports&Exercise&Recreation	Sports, Exercise, and Recreation	Participating in Sports, Exercise, or Recreation	Climbing, spelunking, caving	188	1	True	True	True	True	0.6751470000017434
video_on	action	16	eeg	1	JP98jH9sEcY	Playing accordion	Arts&Entertainment	Socializing, Relaxing, and Leisure	Arts and Entertainment	Playing musical instruments	267	2	True	False	False	True	0.5660164000000805
video_on	action	16	eeg	1	YCvthTGbfZQ	Playing congas	Arts&Entertainment	Socializing, Relaxing, and Leisure	Arts and Entertainment	Playing musical instruments	345	2	True	False	False	True	0.5852295000222512
video_on	action	16	eeg	1	fM0sXW5vs1U	Cleaning sink	Interior_maintenance&Repair&Decoration	Household Activities	Interior Maintenance, Repair, & Decoration	Interior arrangement, decoration, & repairs	297	7	True	False	False	True	0.696100800007116
video_on	action	16	eeg	1	8eHX4b7XPCg	Powerbocking	Participating_in_sports&Exercise&Recreation	Sports, Exercise, and Recreation	Participating in Sports, Exercise, or Recreation	Playing sports	350	1	True	True	True	True	0.6716373999952339
video_on	action	16	eeg	1	u0qOMjWE1S4	Playing guitarra	Arts&Entertainment	Socializing, Relaxing, and Leisure	Arts and Entertainment	Playing musical instruments	251	2	True	False	False	True	0.5749966999865137
video_on	action	16	eeg	1	9_oXcGBpOhM	Cutting the grass	Lawn&Garden&Houseplants	Household Activities	Lawn, Garden, and Houseplants	Lawn, garden, and houseplant care	301	9	True	False	False	True	0.5591099000012036
video_on	action	16	eeg	1	2JbbDIwZBRY	Putting in contact lenses	Grooming	Personal Care	Grooming	Washing, dressing and grooming oneself	351	4	True	False	False	True	0.593070999981137
video_on	action	16	eeg	1	mHcYSQVUVZw	Tumbling	Participating_in_sports&Exercise&Recreation	Sports, Exercise, and Recreation	Participating in Sports, Exercise, or Recreation	Doing gymnastics	258	1	True	True	True	True	0.8641256999981124
video_on	action	16	eeg	1	_CI78nblMQ0	Fixing bicycle	Vehicles	Household Activities	Vehicles	Vehicle repair and maintenance (by self)	171	11	True	False	False	True	0.6314392999920528
video_on	action	16	eeg	1	V7OBpCQ0vRc	Preparing pasta	Food&Drink_prep.&Presentation&Clean-up	Eating and drinking Activities	Food & Drink Prep., Presentation, & Clean-up	Food and drink preparation	186	5	True	False	True	False	0.8737337999918964
video_on	action	16	eeg	1	-ADCa23iYPg	Carving jack-o-lanterns	Interior_maintenance&Repair&Decoration	Household Activities	Interior Maintenance, Repair, & Decoration	Interior arrangement, decoration, & repairs	295	7	True	False	False	True	0.5748568999988493
video_on	action	16	eeg	1	Y6GPW1vUaqU	Rock-paper-scissors	Relaxing&Leisure	Socializing, Relaxing, and Leisure	Relaxing and Leisure	Playing games	358	3	True	False	False	True	0.6056281999917701
video_on	action	16	eeg	1	1-fVdFLO8g4	Playing racquetball	Participating_in_sports&Exercise&Recreation	Sports, Exercise, and Recreation	Participating in Sports, Exercise, or Recreation	Playing racquet sports	253	1	True	True	True	True	0.7607846999890171
video_on	action	16	eeg	1	Ql5ezBi9yec	Using uneven bars	Participating_in_sports&Exercise&Recreation	Sports, Exercise, and Recreation	Participating in Sports, Exercise, or Recreation	Doing gymnastics	192	1	True	True	True	True	0.6995074999867938
video_on	action	16	eeg	1	0eqlF1_tfn0	Using parallel bars	Participating_in_sports&Exercise&Recreation	Sports, Exercise, and Recreation	Participating in Sports, Exercise, or Recreation	Doing gymnastics	88	1	True	True	True	True	0.6931683000002522
video_on	action	16	eeg	1	HHgcxjcMvDk	Running a marathon	Participating_in_sports&Exercise&Recreation	Sports, Exercise, and Recreation	Participating in Sports, Exercise, or Recreation	Running	362	1	True	True	True	True	0.5153235000034329
video_on	action	16	eeg	1	9q8LghE_vko	Tug of war	Relaxing&Leisure	Socializing, Relaxing, and Leisure	Relaxing and Leisure	Playing games	382	3	True	False	False	True	0.7110560000000987
video_on	action	16	eeg	1	a_upymT-6iE	Zumba	Participating_in_sports&Exercise&Recreation	Sports, Exercise, and Recreation	Participating in Sports, Exercise, or Recreation	Doing aerobics	69	1	True	True	False	False	0.8539603999815881
video_on	action	16	eeg	1	akBSR_RfbGU	Breakdancing	Arts&Entertainment	Socializing, Relaxing, and Leisure	Arts and Entertainment	Dancing	236	2	True	False	False	True	0.645815700001549
video_on	action	16	eeg	1	sKYZ8LvGx1U	Using the balance beam	Participating_in_sports&Exercise&Recreation	Sports, Exercise, and Recreation	Participating in Sports, Exercise, or Recreation	Doing gymnastics	180	1	True	True	True	True	0.7802855000190903
video_on	action	16	eeg	1	7FbKmDXZK5g	Kite flying	Relaxing&Leisure	Socializing, Relaxing, and Leisure	Relaxing and Leisure	Playing games	327	3	True	False	False	True	0.8722991999820806
video_on	action	16	eeg	1	RrHSPZMp87o	Longboarding	Participating_in_sports&Exercise&Recreation	Sports, Exercise, and Recreation	Participating in Sports, Exercise, or Recreation	Playing sports	331	1	True	True	True	True	0.7380498000129592
video_on	action	16	eeg	1	rkqRHgtGV7M	Doing fencing	Participating_in_sports&Exercise&Recreation	Sports, Exercise, and Recreation	Participating in Sports, Exercise, or Recreation	Fencing	309	1	True	True	True	True	0.6806267999927513
video_on	action	16	eeg	1	rFyiG-kO4yY	Playing flauta	Arts&Entertainment	Socializing, Relaxing, and Leisure	Arts and Entertainment	Playing musical instruments	149	2	True	False	False	True	0.8277861000096891
video_on	action	16	eeg	1	W7xDBg8q_2M	Using the monkey bar	Arts&Entertainment	Socializing, Relaxing, and Leisure	Arts and Entertainment	Park activities	383	2	True	False	False	True	0.7324316000158433
video_on	action	16	eeg	1	DRa5Qic3A7Y	Dodgeball	Participating_in_sports&Exercise&Recreation	Sports, Exercise, and Recreation	Participating in Sports, Exercise, or Recreation	Playing sports	161	1	True	True	False	False	0.9298397000238764
video_on	action	16	eeg	1	jd1KDz1X7iE	Doing karate	Participating_in_sports&Exercise&Recreation	Sports, Exercise, and Recreation	Participating in Sports, Exercise, or Recreation	Participating in martial arts	99	1	True	True	True	True	0.8819238999858499
video_on	action	16	eeg	1	rlTv2p0CYrs	Cheerleading	Arts&Entertainment	Socializing, Relaxing, and Leisure	Arts and Entertainment	Dancing	140	2	True	False	False	True	0.7663144999823999
video_on	action	16	eeg	1	qGfES8OnShU	Springboard diving	Participating_in_sports&Exercise&Recreation	Sports, Exercise, and Recreation	Participating in Sports, Exercise, or Recreation	Participating in water sports	193	1	True	True	True	True	0.5754569000273477
video_on	action	16	eeg	1	_EyKlGsVRCY	Snowboarding	Participating_in_sports&Exercise&Recreation	Sports, Exercise, and Recreation	Participating in Sports, Exercise, or Recreation	Skiing, ice skating, snowboarding	373	1	True	True	False	False	0.6799373000103515
video_on	action	16	eeg	1	jMsac9x2q2I	Elliptical trainer	Participating_in_sports&Exercise&Recreation	Sports, Exercise, and Recreation	Participating in Sports, Exercise, or Recreation	Using cardiovascular equipment	308	1	True	True	True	True	0.6284929999965243
video_on	action	16	eeg	1	OrKPYdhAOas	Baton twirling	Participating_in_sports&Exercise&Recreation	Sports, Exercise, and Recreation	Participating in Sports, Exercise, or Recreation	Playing sports	277	1	True	True	True	True	0.5271865999966394
video_on	action	16	eeg	1	xeuWIeo6ocg	Playing saxophone	Arts&Entertainment	Socializing, Relaxing, and Leisure	Arts and Entertainment	Playing musical instruments	109	2	True	False	False	True	0.7946455999917816
video_on	action	16	eeg	1	9th-P90CHBo	Playing beach volleyball	Participating_in_sports&Exercise&Recreation	Sports, Exercise, and Recreation	Participating in Sports, Exercise, or Recreation	Playing volleyball	341	1	True	True	True	True	0.8083905999956187
video_on	action	16	eeg	1	cxrCi0Smm7I	Putting on shoes	Grooming	Personal Care	Grooming	Washing, dressing and grooming oneself	352	4	True	False	False	True	0.8961092999961693
video_on	action	16	eeg	1	PMq5DaEH_rc	Playing badminton	Participating_in_sports&Exercise&Recreation	Sports, Exercise, and Recreation	Participating in Sports, Exercise, or Recreation	Playing racquet sports	268	1	True	True	True	True	0.8204363999830093
video_on	action	16	eeg	1	BuyfIer3bwk	Archery	Participating_in_sports&Exercise&Recreation	Sports, Exercise, and Recreation	Participating in Sports, Exercise, or Recreation	Playing sports	250	1	True	True	True	True	0.8263458000146784
video_on	action	16	eeg	1	EGSbRPsPAhA	Snow tubing	Participating_in_sports&Exercise&Recreation	Sports, Exercise, and Recreation	Participating in Sports, Exercise, or Recreation	Skiing, ice skating, snowboarding	372	1	True	True	False	False	0.7442444000043906
video_on	action	16	eeg	1	T4xsDHIcb3o	Playing piano	Arts&Entertainment	Socializing, Relaxing, and Leisure	Arts and Entertainment	Playing musical instruments	197	2	False	False	False	True	0.0
video_on	action	16	eeg	1	MJ68pG_iyn4	Playing squash	Participating_in_sports&Exercise&Recreation	Sports, Exercise, and Recreation	Participating in Sports, Exercise, or Recreation	Playing racquet sports	194	1	True	True	False	False	0.0050687000039033
video_on	action	16	eeg	1	GpeNSvMME_E	Triple jump	Participating_in_sports&Exercise&Recreation	Sports, Exercise, and Recreation	Participating in Sports, Exercise, or Recreation	Playing sports	155	1	True	True	True	True	0.6015187999873888
video_on	action	16	eeg	1	7x8MoRLz8Yg	Skateboarding	Participating_in_sports&Exercise&Recreation	Sports, Exercise, and Recreation	Participating in Sports, Exercise, or Recreation	Playing sports	176	1	True	True	True	True	0.6157843999972101
video_on	action	16	eeg	1	sk0A2_8yAfY	Volleyball	Participating_in_sports&Exercise&Recreation	Sports, Exercise, and Recreation	Participating in Sports, Exercise, or Recreation	Playing volleyball	123	1	True	True	True	True	0.6489457999996375
video_on	action	16	eeg	1	hadgd6uDKg8	Rope skipping	Participating_in_sports&Exercise&Recreation	Sports, Exercise, and Recreation	Participating in Sports, Exercise, or Recreation	Working out	361	1	True	True	True	True	0.6759118000045419
video_on	action	16	eeg	1	tFefESjyZ7E	Assembling bicycle	Vehicles	Household Activities	Vehicles	Vehicle repair and maintenance (by self)	273	11	True	False	False	True	0.622918800014304
video_on	action	16	eeg	1	EITp20aMAMg	Painting fence	Exterior_maintenance&Repair&Decoration	Household Activities	Exterior Maintenance, Repair, & Decoration	Painting fence	336	12	True	False	False	True	0.6862484000157565
video_on	action	16	eeg	1	XDlnDpggckY	Hitting a pinata	Relaxing&Leisure	Socializing, Relaxing, and Leisure	Relaxing and Leisure	Playing games	321	3	True	False	False	True	0.6893071999948006
video_on	action	16	eeg	1	m0K3Nsjluxc	Playing polo	Participating_in_sports&Exercise&Recreation	Sports, Exercise, and Recreation	Participating in Sports, Exercise, or Recreation	Participating in equestrian sports	75	1	True	True	True	True	0.6809237999841571
video_on	action	16	eeg	1	z96ASFyRxnM	Getting a piercing	Grooming	Personal Care	Grooming	Washing, dressing and grooming	214	4	True	False	False	True	0.7140466999844648
video_on	action	16	eeg	1	0DNN5mJaOsE	Blow-drying hair	Grooming	Personal Care	Grooming	Washing, dressing and grooming oneself	281	4	True	False	False	True	0.8710742999974173
video_on	action	16	eeg	1	Ez4N9pSYdQQ	Making a lemonade	Food&Drink_prep.&Presentation&Clean-up	Eating and drinking Activities	Food & Drink Prep., Presentation, & Clean-up	Food and drink preparation	333	5	True	False	False	True	0.5721984000119846
video_on	action	16	eeg	1	6pVQvG3gCC0	Polishing shoes	Housework	Household Activities	Housework	Sewing, repairing, & maintaining textiles	227	6	True	False	False	True	0.6516123000183143
video_on	action	16	eeg	1	Um6ZZmrCZ-A	Rollerblading	Participating_in_sports&Exercise&Recreation	Sports, Exercise, and Recreation	Participating in Sports, Exercise, or Recreation	Playing sports	359	1	True	True	True	True	0.941512599994894
video_on	action	16	eeg	1	N48Z7Xn7stY	Hanging wallpaper	Interior_maintenance&Repair&Decoration	Household Activities	Interior Maintenance, Repair, & Decoration	Interior arrangement, decoration, & repairs	319	7	True	False	False	True	0.9218442999990656
video_on	action	16	eeg	1	4mRmg5CHv8I	Vacuuming floor	Housework	Household Activities	Housework	Interior cleaning	160	6	True	False	False	True	0.6939883999875747
video_on	action	16	eeg	1	X0lAEIoVhiA	Knitting	Housework	Household Activities	Housework	Sewing, repairing, & maintaining textiles	329	6	True	False	False	True	0.5271295999991708
video_on	action	16	eeg	1	j7TH3z7LEas	Plataform diving	Participating_in_sports&Exercise&Recreation	Sports, Exercise, and Recreation	Participating in Sports, Exercise, or Recreation	Participating in water sports	233	1	False	True	False	False	0.0
video_on	action	16	meg	2	PeFw3HZROfA	Paintball	Participating_in_sports&Exercise&Recreation	Sports, Exercise, and Recreation	Participating in Sports, Exercise, or Recreation	Playing sports	141	1	True	True	False	False	0.2497769942601735
video_on	action	16	meg	2	ns26AzbKEpk	Longboarding	Participating_in_sports&Exercise&Recreation	Sports, Exercise, and Recreation	Participating in Sports, Exercise, or Recreation	Playing sports	331	1	True	True	False	False	0.4587711817730451
video_on	action	16	meg	2	1nzD6uSkTxQ	Using the balance beam	Participating_in_sports&Exercise&Recreation	Sports, Exercise, and Recreation	Participating in Sports, Exercise, or Recreation	Doing gymnastics	180	1	True	True	True	True	0.3789072039544408
video_on	action	16	meg	2	HNuVuE8kp4U	Ironing clothes	Housework	Household Activities	Housework	Laundry	83	6	True	False	False	True	0.3308239967755071
video_on	action	16	meg	2	lZCHP-pDjJg	Playing field hockey	Participating_in_sports&Exercise&Recreation	Sports, Exercise, and Recreation	Participating in Sports, Exercise, or Recreation	Playing hockey	94	1	True	True	True	True	0.2989079888120614
video_on	action	16	meg	2	JukMa6-V1pE	Swimming	Participating_in_sports&Exercise&Recreation	Sports, Exercise, and Recreation	Participating in Sports, Exercise, or Recreation	Participating in water sports	377	1	True	True	True	True	0.3633310642853757
video_on	action	16	meg	2	_NL93lygv2c	Using parallel bars	Participating_in_sports&Exercise&Recreation	Sports, Exercise, and Recreation	Participating in Sports, Exercise, or Recreation	Doing gymnastics	88	1	True	True	True	True	0.3955072833450685
video_on	action	16	meg	2	DqT3NrqisLk	Cleaning shoes	Housework	Household Activities	Housework	Sewing, repairing, & maintaining textiles	134	6	True	False	False	True	0.3717429464522865
video_on	action	16	meg	2	ubLA5maDVgA	Grooming horse	Animals&Pets	Household Activities	Animals and Pets	Walking / exercising / playing with animals	95	8	True	False	False	True	0.3077258848152269
video_on	action	16	meg	2	75qwD6Am5V8	Putting on shoes	Grooming	Personal Care	Grooming	Washing, dressing and grooming oneself	352	4	True	False	False	True	0.3959543513665267
video_on	action	16	meg	2	jbwe_tkjeHM	Dodgeball	Participating_in_sports&Exercise&Recreation	Sports, Exercise, and Recreation	Participating in Sports, Exercise, or Recreation	Playing sports	161	1	True	True	False	False	0.406261065385479
video_on	action	16	meg	2	VXL7Vn_nx6E	Playing badminton	Participating_in_sports&Exercise&Recreation	Sports, Exercise, and Recreation	Participating in Sports, Exercise, or Recreation	Playing racquet sports	268	1	True	True	True	True	0.4121665290640521
video_on	action	16	meg	2	J8gX9h1vX68	Fixing bicycle	Vehicles	Household Activities	Vehicles	Vehicle repair and maintenance (by self)	171	11	True	False	False	True	0.3805439377902075
video_on	action	16	meg	2	wiB2XdvBqMc	Surfing	Participating_in_sports&Exercise&Recreation	Sports, Exercise, and Recreation	Participating in Sports, Exercise, or Recreation	Participating in water sports	376	1	True	True	True	True	0.3567808083753334
video_on	action	16	meg	2	qaU3pNFFErQ	Rock-paper-scissors	Relaxing&Leisure	Socializing, Relaxing, and Leisure	Relaxing and Leisure	Playing games	358	3	True	False	False	True	0.3407503558282769
video_on	action	16	meg	2	EtI5BZPvGc4	Smoking hookah	Relaxing&Leisure	Socializing, Relaxing, and Leisure	Relaxing and Leisure	Tobacco and drug use	189	3	True	False	False	True	0.4370520075044624
video_on	action	16	meg	2	lOHPPIv3wtQ	Putting in contact lenses	Grooming	Personal Care	Grooming	Washing, dressing and grooming oneself	351	4	True	False	False	True	0.3251591227071913
video_on	action	16	meg	2	fkiA1Ze3kPY	Making a cake	Food&Drink_prep.&Presentation&Clean-up	Eating and drinking Activities	Food & Drink Prep., Presentation, & Clean-up	Food and drink preparation	332	5	True	False	False	True	0.3244910865614656
video_on	action	16	meg	2	r4Hmjx7yj44	Elliptical trainer	Participating_in_sports&Exercise&Recreation	Sports, Exercise, and Recreation	Participating in Sports, Exercise, or Recreation	Using cardiovascular equipment	308	1	True	True	False	False	0.5492114426469925
video_on	action	16	meg	2	mYX0yhUlD2g	Scuba diving	Participating_in_sports&Exercise&Recreation	Sports, Exercise, and Recreation	Participating in Sports, Exercise, or Recreation	Participating in water sports	364	1	True	True	False	False	0.6394935241551138
video_on	action	16	meg	2	KKNcIkXDD5o	Getting a tattoo	Grooming	Personal Care	Grooming	Washing, dressing and grooming	187	4	True	False	False	True	0.4538057382287661
video_on	action	16	meg	2	ItYhyEMt0qg	Using the rowing machine	Participating_in_sports&Exercise&Recreation	Sports, Exercise, and Recreation	Participating in Sports, Exercise, or Recreation	Using cardiovascular equipment	384	1	True	True	False	False	0.6619395990273915
video_on	action	16	meg	2	SUphd7ZOCyY	Painting	Interior_maintenance&Repair&Decoration	Household Activities	Interior Maintenance, Repair, & Decoration	Interior arrangement, decoration, & repairs	217	7	True	False	False	True	0.3981589008344599
video_on	action	16	meg	2	WCqddipqpCg	Grooming dog	Animals&Pets	Household Activities	Animals and Pets	Care for animals and pets (not veterinary care)	317	8	True	False	False	True	0.5100816706635669
video_on	action	16	meg	2	BL7tvYnPsLs	Skateboarding	Participating_in_sports&Exercise&Recreation	Sports, Exercise, and Recreation	Participating in Sports, Exercise, or Recreation	Playing sports	176	1	True	True	False	False	0.5414171844968223
video_on	action	16	meg	2	zoLXkjA6Aa8	Shuffleboard	Relaxing&Leisure	Socializing, Relaxing, and Leisure	Relaxing and Leisure	Playing games	368	3	True	False	False	True	0.6617527421021805
video_on	action	16	meg	2	GWX8lWM6CfM	Preparing salad	Food&Drink_prep.&Presentation&Clean-up	Eating and drinking Activities	Food & Drink Prep., Presentation, & Clean-up	Food and drink preparation	96	5	True	False	False	True	0.4545136210836062
video_on	action	16	meg	2	EzTRTc-hQFA	Mooping floor	Housework	Household Activities	Housework	Interior cleaning	335	6	True	False	False	True	0.3269555452588975
video_on	action	16	meg	2	6f8y8yTXTaA	Making a sandwich	Food&Drink_prep.&Presentation&Clean-up	Eating and drinking Activities	Food & Drink Prep., Presentation, & Clean-up	Food and drink preparation	129	5	True	False	False	True	0.4809627810573147
video_on	action	16	meg	2	tUQN-rqI6RI	Doing karate	Participating_in_sports&Exercise&Recreation	Sports, Exercise, and Recreation	Participating in Sports, Exercise, or Recreation	Participating in martial arts	99	1	True	True	False	False	0.6695708479037421
video_on	action	16	meg	2	SVKImikDEoY	Vacuuming floor	Housework	Household Activities	Housework	Interior cleaning	160	6	True	False	False	True	0.5032573176831647
video_on	action	16	meg	2	W0tuXxKk5ck	Mowing the lawn	Lawn&Garden&Houseplants	Household Activities	Lawn, Garden, and Houseplants	Lawn, garden, and houseplant care	218	9	True	False	False	True	0.5027682898671628
video_on	action	16	meg	2	fFv9tXyroow	Getting a piercing	Grooming	Personal Care	Grooming	Washing, dressing and grooming	214	4	True	False	False	True	0.4076080049617303
video_on	action	16	meg	2	MxdMOjHG-tU	Baking cookies	Food&Drink_prep.&Presentation&Clean-up	Eating and drinking Activities	Food & Drink Prep., Presentation, & Clean-up	Food and drink preparation	276	5	True	False	False	True	0.365723074415655
video_on	action	16	meg	2	rYa9daeEyRA	Having an ice cream	Food&Drink_prep.&Presentation&Clean-up	Eating and drinking Activities	Food & Drink Prep., Presentation, & Clean-up	Eating and Drinking	320	5	True	False	False	True	0.3678926070770103
video_on	action	16	meg	2	xYi1Lg82aTM	Mixing drinks	Food&Drink_prep.&Presentation&Clean-up	Eating and drinking Activities	Food & Drink Prep., Presentation, & Clean-up	Food and drink preparation	244	5	True	False	False	True	0.3921049175987718
video_on	action	16	meg	2	_Wc0Fhulr2A	Knitting	Housework	Household Activities	Housework	Sewing, repairing, & maintaining textiles	329	6	True	False	False	True	0.5914335608922556
video_on	action	16	meg	2	uLkJZuYiPvA	Rope skipping	Participating_in_sports&Exercise&Recreation	Sports, Exercise, and Recreation	Participating in Sports, Exercise, or Recreation	Working out	361	1	True	True	True	True	0.3844359350914601
video_on	action	16	meg	2	v5bM83eQKHQ	Painting furniture	Interior_maintenance&Repair&Decoration	Household Activities	Interior Maintenance, Repair, & Decoration	Building and repairing furniture	337	7	True	False	False	True	0.3112166981863993
video_on	action	16	meg	2	diRd9DY3uA8	Assembling bicycle	Vehicles	Household Activities	Vehicles	Vehicle repair and maintenance (by self)	273	11	True	False	False	True	0.3926150762454199
video_on	action	16	meg	2	pPpmgHZdn8Y	Doing kickboxing	Participating_in_sports&Exercise&Recreation	Sports, Exercise, and Recreation	Participating in Sports, Exercise, or Recreation	Participating in martial arts	70	1	True	True	True	True	0.4307906402482331
video_on	action	16	meg	2	l9tP0Gar6eM	Doing crunches	Participating_in_sports&Exercise&Recreation	Sports, Exercise, and Recreation	Participating in Sports, Exercise, or Recreation	Working out	305	1	True	True	True	True	0.519119931053865
video_on	action	16	meg	2	VeJ8TxgbQ0A	Bathing dog	Animals&Pets	Household Activities	Animals and Pets	Care for animals and pets (not veterinary care)	90	8	True	False	False	True	0.4237426023228181
video_on	action	16	meg	2	Sxx8o8Qf8tk	Playing flauta	Arts&Entertainment	Socializing, Relaxing, and Leisure	Arts and Entertainment	Playing musical instruments	149	2	True	False	False	True	0.367919171550966
video_on	action	16	meg	2	to5dTCOa_bE	Snow tubing	Participating_in_sports&Exercise&Recreation	Sports, Exercise, and Recreation	Participating in Sports, Exercise, or Recreation	Skiing, ice skating, snowboarding	372	1	True	True	False	False	0.401239474203976
video_on	action	16	meg	2	W3IPoJ418OE	Shoveling snow	Exterior_maintenance&Repair&Decoration	Household Activities	Exterior Maintenance, Repair, & Decoration	Exterior cleaning	183	12	True	False	False	True	0.4418148969343747
video_on	action	16	meg	2	_Mxs1Bk5V0Q	Making a lemonade	Food&Drink_prep.&Presentation&Clean-up	Eating and drinking Activities	Food & Drink Prep., Presentation, & Clean-up	Food and drink preparation	333	5	True	False	False	True	0.3771642122192133
video_on	action	16	meg	2	jXNizXBSx4o	Braiding hair	Grooming	Personal Care	Grooming	Washing, dressing and grooming oneself	285	4	True	False	False	True	0.3700099163979757
video_on	action	16	meg	2	s6rTMIXg2xc	Brushing hair	Grooming	Personal Care	Grooming	Washing, dressing and grooming oneself	125	4	True	False	False	True	0.3294483796416898
video_on	action	16	meg	2	1vmyFQGNjxM	Table soccer	Relaxing&Leisure	Socializing, Relaxing, and Leisure	Relaxing and Leisure	Playing games	379	3	True	False	False	True	0.3215677869520732
video_on	action	16	meg	2	Mv7F6Q6WLco	Putting on makeup	Grooming	Personal Care	Grooming	Washing, dressing and grooming oneself	76	4	True	False	False	True	0.3778745100298692
video_on	action	16	meg	2	Y4s9BDwkess	Triple jump	Participating_in_sports&Exercise&Recreation	Sports, Exercise, and Recreation	Participating in Sports, Exercise, or Recreation	Playing sports	155	1	True	True	True	True	0.322057418507029
video_on	action	16	meg	2	zIypVHh_ny0	Brushing teeth	Grooming	Personal Care	Grooming	Washing, dressing and grooming oneself	148	4	True	False	False	True	0.5227713387448603
video_on	action	16	meg	2	i1wgVf2nXXw	Playing rubik cube	Relaxing&Leisure	Socializing, Relaxing, and Leisure	Relaxing and Leisure	Playing games	349	3	True	False	False	True	0.3009824327309616
video_on	action	16	meg	2	Lm9orszqcYQ	Cricket	Participating_in_sports&Exercise&Recreation	Sports, Exercise, and Recreation	Participating in Sports, Exercise, or Recreation	Playing sports	82	1	True	True	True	True	0.0051770537284028
video_on	action	16	meg	2	aNa9LJ7ll08	Rafting	Participating_in_sports&Exercise&Recreation	Sports, Exercise, and Recreation	Participating in Sports, Exercise, or Recreation	Boating	353	1	True	True	True	True	0.4172816996433539
video_on	action	16	meg	2	pJTKs0_nmuI	Bungee jumping	Participating_in_sports&Exercise&Recreation	Sports, Exercise, and Recreation	Participating in Sports, Exercise, or Recreation	Playing sports	154	1	True	True	False	False	0.9227794892067324
video_on	action	16	meg	2	8Zy0QI64RBY	Javelin throw	Participating_in_sports&Exercise&Recreation	Sports, Exercise, and Recreation	Participating in Sports, Exercise, or Recreation	Playing sports	116	1	True	True	True	True	0.6348323645852361
video_on	action	16	meg	2	eq8eKDkQ0fw	Washing dishes	Food&Drink_prep.&Presentation&Clean-up	Eating and drinking Activities	Food & Drink Prep., Presentation, & Clean-up	Kitchen and food clean-up	213	5	True	False	False	True	0.4590178087619279
video_on	action	16	meg	2	0rFwtCkqXeA	Cleaning sink	Interior_maintenance&Repair&Decoration	Household Activities	Interior Maintenance, Repair, & Decoration	Interior arrangement, decoration, & repairs	297	7	True	False	False	True	0.4831606894094875
video_on	action	16	meg	2	U0FWM_YWKSU	Zumba	Participating_in_sports&Exercise&Recreation	Sports, Exercise, and Recreation	Participating in Sports, Exercise, or Recreation	Doing aerobics	69	1	True	True	False	False	0.4594651786537724
video_on	action	16	meg	2	fuB6OAYnOCU	Volleyball	Participating_in_sports&Exercise&Recreation	Sports, Exercise, and Recreation	Participating in Sports, Exercise, or Recreation	Playing volleyball	123	1	True	True	True	True	0.4193944809285312
video_on	action	16	meg	2	1e3Do22UA5E	Hitting a pinata	Relaxing&Leisure	Socializing, Relaxing, and Leisure	Relaxing and Leisure	Playing games	321	3	True	False	False	True	0.3403573223622516
video_on	action	16	meg	2	8fxy10TcFI4	Belly dance	Arts&Entertainment	Socializing, Relaxing, and Leisure	Arts and Entertainment	Dancing	247	2	True	False	False	True	0.4377900772633438
video_on	action	16	meg	2	A5XbvBjVwQo	Trimming branches or hedges	Lawn&Garden&Houseplants	Household Activities	Lawn, Garden, and Houseplants	Lawn, garden, and houseplant care	381	9	True	False	False	True	0.523841766294936
video_on	action	16	meg	2	pnzrCI9J-lE	Wakeboarding	Participating_in_sports&Exercise&Recreation	Sports, Exercise, and Recreation	Participating in Sports, Exercise, or Recreation	Participating in water sports	385	1	True	True	True	True	0.3960913999035256
video_on	action	16	meg	2	cXQ6n_eziJE	Playing squash	Participating_in_sports&Exercise&Recreation	Sports, Exercise, and Recreation	Participating in Sports, Exercise, or Recreation	Playing racquet sports	194	1	True	True	True	True	0.4442802612375089
video_on	action	16	meg	2	FQRW5a9Au40	Shaving	Grooming	Personal Care	Grooming	Washing, dressing and grooming oneself	190	4	True	False	False	True	0.4042952943145792
video_on	action	16	meg	2	ooUAXYgk3i4	Starting a campfire	Participating_in_sports&Exercise&Recreation	Sports, Exercise, and Recreation	Participating in Sports, Exercise, or Recreation	Playing sports	153	1	True	True	False	False	0.3804461322270072
video_on	action	16	meg	2	Pk0t6bkQsOw	Decorating the Christmas tree	Interior_maintenance&Repair&Decoration	Household Activities	Interior Maintenance, Repair, & Decoration	Interior arrangement, decoration, & repairs	302	7	True	False	False	True	0.460554020217387
video_on	action	16	meg	2	416GlXTCgmk	Doing step aerobics	Participating_in_sports&Exercise&Recreation	Sports, Exercise, and Recreation	Participating in Sports, Exercise, or Recreation	Doing aerobics	230	1	True	True	False	False	0.386985218983682
video_on	action	16	meg	2	1woU02dH9-w	Hopscotch	Relaxing&Leisure	Socializing, Relaxing, and Leisure	Relaxing and Leisure	Playing games	241	3	True	False	False	True	0.4371132869164285
video_on	action	16	meg	2	3RjPvPnpYT4	Playing ice hockey	Participating_in_sports&Exercise&Recreation	Sports, Exercise, and Recreation	Participating in Sports, Exercise, or Recreation	Playing hockey	347	1	True	True	True	True	0.2553660992016375
video_on	action	16	meg	2	w7-QPdX7niM	Raking leaves	Lawn&Garden&Houseplants	Household Activities	Lawn, Garden, and Houseplants	Lawn, garden, and houseplant care	354	9	True	False	False	True	0.4053180265618721
video_on	action	16	meg	2	5UzI-dwphcc	Long jump	Participating_in_sports&Exercise&Recreation	Sports, Exercise, and Recreation	Participating in Sports, Exercise, or Recreation	Playing sports	80	1	True	True	True	True	0.4315172389851796
video_on	action	16	meg	2	RFdQYrMBVoQ	Riding bumper cars	Relaxing&Leisure	Socializing, Relaxing, and Leisure	Relaxing and Leisure	Playing games	356	3	True	False	False	True	0.3483734542405727
video_on	action	16	meg	2	9tXtCtlcY2Y	Windsurfing	Participating_in_sports&Exercise&Recreation	Sports, Exercise, and Recreation	Participating in Sports, Exercise, or Recreation	Participating in water sports	237	1	True	True	True	True	0.5039253538270714
video_on	action	16	meg	2	2MMt2nz4KiQ	Shot put	Participating_in_sports&Exercise&Recreation	Sports, Exercise, and Recreation	Participating in Sports, Exercise, or Recreation	Playing sports	169	1	True	True	True	True	0.4859327526373818
video_on	action	16	meg	2	j3RDDaWgWmo	Rock climbing	Participating_in_sports&Exercise&Recreation	Sports, Exercise, and Recreation	Participating in Sports, Exercise, or Recreation	Climbing, spelunking, caving	188	1	True	True	True	True	0.3741117126683093
video_on	action	16	meg	2	8-rrZbBq6-s	Fun sliding down	Arts&Entertainment	Socializing, Relaxing, and Leisure	Arts and Entertainment	Park activities	313	2	True	False	False	True	0.3262102306434826
video_on	action	16	meg	2	R2t-48-W0zw	Archery	Participating_in_sports&Exercise&Recreation	Sports, Exercise, and Recreation	Participating in Sports, Exercise, or Recreation	Playing sports	250	1	True	True	True	True	0.3688145150699711
video_on	action	16	meg	2	ZX9ObYq3pDM	Sailing	Participating_in_sports&Exercise&Recreation	Sports, Exercise, and Recreation	Participating in Sports, Exercise, or Recreation	Participating in water sports	240	1	True	True	False	False	0.4306031795858871
video_on	action	16	meg	2	vW9kJWR8Ov8	Doing fencing	Participating_in_sports&Exercise&Recreation	Sports, Exercise, and Recreation	Participating in Sports, Exercise, or Recreation	Fencing	309	1	True	True	True	True	0.3986437024832412
video_on	action	16	meg	2	FHYaO9dpQAc	Blow-drying hair	Grooming	Personal Care	Grooming	Washing, dressing and grooming oneself	281	4	True	False	False	True	0.4149630436841107
video_on	action	16	meg	2	35fkuK8eQkg	Skiing	Participating_in_sports&Exercise&Recreation	Sports, Exercise, and Recreation	Participating in Sports, Exercise, or Recreation	Skiing, ice skating, snowboarding	369	1	True	True	True	True	0.3212149020655488
video_on	action	16	meg	2	0xJq6pqnCNo	Horseback riding	Participating_in_sports&Exercise&Recreation	Sports, Exercise, and Recreation	Participating in Sports, Exercise, or Recreation	Participating in equestrian sports	175	1	True	True	False	False	0.3353013181113056
video_on	action	16	meg	2	PiZg4vt6AFM	Springboard diving	Participating_in_sports&Exercise&Recreation	Sports, Exercise, and Recreation	Participating in Sports, Exercise, or Recreation	Participating in water sports	193	1	True	True	True	True	0.0053509302852035
video_on	action	16	meg	2	TJh7NqhhQYo	Using the pommel horse	Participating_in_sports&Exercise&Recreation	Sports, Exercise, and Recreation	Participating in Sports, Exercise, or Recreation	Doing gymnastics	114	1	True	True	True	True	0.4074766919366084
video_on	action	16	meg	2	1ptx3ekHeCk	Using uneven bars	Participating_in_sports&Exercise&Recreation	Sports, Exercise, and Recreation	Participating in Sports, Exercise, or Recreation	Doing gymnastics	192	1	True	True	True	True	0.5357604608943802
video_on	action	16	meg	2	5pHcAreuPxE	Smoking a cigarette	Relaxing&Leisure	Socializing, Relaxing, and Leisure	Relaxing and Leisure	Tobacco and drug use	201	3	False	False	False	True	0.0
video_on	action	16	eeg	2	olk76pEIzaA	Hand washing clothes	Housework	Household Activities	Housework	Laundry	232	6	True	False	False	True	0.473517999984324
video_on	action	16	eeg	2	TQp7LXOaX_Y	Smoking a cigarette	Relaxing&Leisure	Socializing, Relaxing, and Leisure	Relaxing and Leisure	Tobacco and drug use	201	3	True	False	False	True	0.5925153999996837
video_on	action	16	eeg	2	dwiGV0fMqYw	Waxing skis	Appliances&Tools&Toys	Household Activities	Appliances, Tools, and Toys	Appliance, tool, and toy set-up, repair, & maintenance (by self)	387	10	True	False	False	True	0.8035238000156824
video_on	action	16	eeg	2	gxbXBp5UpOc	Playing drums	Arts&Entertainment	Socializing, Relaxing, and Leisure	Arts and Entertainment	Playing musical instruments	346	2	True	False	False	True	0.5067897000117227
video_on	action	16	eeg	2	fIjuWa7Yr1w	Raking leaves	Lawn&Garden&Houseplants	Household Activities	Lawn, Garden, and Houseplants	Lawn, garden, and houseplant care	354	9	True	False	False	True	0.5077135999745224
video_on	action	16	eeg	2	5D4rBDkEZZo	Throwing darts	Relaxing&Leisure	Socializing, Relaxing, and Leisure	Relaxing and Leisure	Playing games	380	3	True	False	False	True	0.5851247000100557
video_on	action	16	eeg	2	5W9zDhBRpGk	Ballet	Arts&Entertainment	Socializing, Relaxing, and Leisure	Arts and Entertainment	Attending arts and entertainment	229	2	True	False	False	True	0.5170168000040576
video_on	action	16	eeg	2	qat8DFAA9_I	Long jump	Participating_in_sports&Exercise&Recreation	Sports, Exercise, and Recreation	Participating in Sports, Exercise, or Recreation	Playing sports	80	1	True	True	True	True	0.6424827000009827
video_on	action	16	eeg	2	Y8TXi455rHI	Tango	Arts&Entertainment	Socializing, Relaxing, and Leisure	Arts and Entertainment	Dancing	73	2	True	False	False	True	0.7547876999888103
video_on	action	16	eeg	2	TPxCsJal8Jc	Shot put	Participating_in_sports&Exercise&Recreation	Sports, Exercise, and Recreation	Participating in Sports, Exercise, or Recreation	Playing sports	169	1	True	True	True	True	0.6327439999731723
video_on	action	16	eeg	2	Wk2jnQih5m4	Windsurfing	Participating_in_sports&Exercise&Recreation	Sports, Exercise, and Recreation	Participating in Sports, Exercise, or Recreation	Participating in water sports	237	1	True	True	False	False	0.5883551999868359
video_on	action	16	eeg	2	ORwBdXV-GOs	Mixing drinks	Food&Drink_prep.&Presentation&Clean-up	Eating and drinking Activities	Food & Drink Prep., Presentation, & Clean-up	Food and drink preparation	244	5	True	False	False	True	0.7547542000247631
video_on	action	16	eeg	2	ao2-PkR7abQ	Making a cake	Food&Drink_prep.&Presentation&Clean-up	Eating and drinking Activities	Food & Drink Prep., Presentation, & Clean-up	Food and drink preparation	332	5	True	False	False	True	0.6532890999806114
video_on	action	16	eeg	2	D9Ek7cSRk2o	Pole vault	Participating_in_sports&Exercise&Recreation	Sports, Exercise, and Recreation	Participating in Sports, Exercise, or Recreation	Playing sports	106	1	True	True	True	True	0.6005783000146039
video_on	action	16	eeg	2	Xr3v7nKq2oQ	Beer pong	Relaxing&Leisure	Socializing, Relaxing, and Leisure	Relaxing and Leisure	Playing games	280	3	True	False	False	True	0.8022392999846488
video_on	action	16	eeg	2	2B6xe9bKKwI	Putting on makeup	Grooming	Personal Care	Grooming	Washing, dressing and grooming oneself	76	4	True	False	False	True	0.7163661000085995
video_on	action	16	eeg	2	9E2S8H0QyRk	Riding bumper cars	Relaxing&Leisure	Socializing, Relaxing, and Leisure	Relaxing and Leisure	Playing games	356	3	True	False	False	True	0.6863865999912377
video_on	action	16	eeg	2	Yd3GhThd5UE	Playing bagpipes	Arts&Entertainment	Socializing, Relaxing, and Leisure	Arts and Entertainment	Playing musical instruments	136	2	True	False	False	True	0.6617676999885589
video_on	action	16	eeg	2	AY7CquqbUtw	Tai chi	Participating_in_sports&Exercise&Recreation	Sports, Exercise, and Recreation	Participating in Sports, Exercise, or Recreation	Participating in martial arts	263	1	True	True	True	True	0.6555214000109117
video_on	action	16	eeg	2	wuYA8nbT9gs	Starting a campfire	Participating_in_sports&Exercise&Recreation	Sports, Exercise, and Recreation	Participating in Sports, Exercise, or Recreation	Playing sports	153	1	True	True	False	False	0.6220293999940623
video_on	action	16	eeg	2	9VnW8wPssos	Decorating the Christmas tree	Interior_maintenance&Repair&Decoration	Household Activities	Interior Maintenance, Repair, & Decoration	Interior arrangement, decoration, & repairs	302	7	True	False	False	True	0.6151830999879166
video_on	action	16	eeg	2	sYs9VyQ3HQE	Plastering	Interior_maintenance&Repair&Decoration	Household Activities	Interior Maintenance, Repair, & Decoration	Interior arrangement, decoration, & repairs	340	7	True	False	False	True	0.9413753999979236
video_on	action	16	eeg	2	GUfyOdpvpnw	Welding	Appliances&Tools&Toys	Household Activities	Appliances, Tools, and Toys	Appliance, tool, and toy set-up, repair, & maintenance (by self)	388	10	True	False	False	True	0.8873968000116292
video_on	action	16	eeg	2	SD5rvw9IOEc	Sailing	Participating_in_sports&Exercise&Recreation	Sports, Exercise, and Recreation	Participating in Sports, Exercise, or Recreation	Participating in water sports	240	1	True	True	True	True	0.6323761999956332
video_on	action	16	eeg	2	tXpCuBi47Ko	Mowing the lawn	Lawn&Garden&Houseplants	Household Activities	Lawn, Garden, and Houseplants	Lawn, garden, and houseplant care	218	9	True	False	False	True	0.6788394999748562
video_on	action	16	eeg	2	iTIKEYeEcOA	Fun sliding down	Arts&Entertainment	Socializing, Relaxing, and Leisure	Arts and Entertainment	Park activities	313	2	True	False	False	True	0.6576523000258021
video_on	action	16	eeg	2	faPm8IJFiys	Futsal	Participating_in_sports&Exercise&Recreation	Sports, Exercise, and Recreation	Participating in Sports, Exercise, or Recreation	Playing soccer	315	1	True	True	True	True	0.7739090000104625
video_on	action	16	eeg	2	lHW3iBM1L5s	Waterskiing	Participating_in_sports&Exercise&Recreation	Sports, Exercise, and Recreation	Participating in Sports, Exercise, or Recreation	Participating in water sports	386	1	True	True	True	True	0.6280775000050198
video_on	action	16	eeg	2	83wVXfOs2VU	Smoking hookah	Relaxing&Leisure	Socializing, Relaxing, and Leisure	Relaxing and Leisure	Tobacco and drug use	189	3	True	False	False	True	0.8415081000130158
video_on	action	16	eeg	2	anOncqMrtPM	Hopscotch	Relaxing&Leisure	Socializing, Relaxing, and Leisure	Relaxing and Leisure	Playing games	241	3	True	False	False	True	0.8748596000077669
video_on	action	16	eeg	2	R3W7AYNi5IU	Baking cookies	Food&Drink_prep.&Presentation&Clean-up	Eating and drinking Activities	Food & Drink Prep., Presentation, & Clean-up	Food and drink preparation	276	5	True	False	False	True	0.6248838999890722
video_on	action	16	eeg	2	jkbEyqurBXs	Ironing clothes	Housework	Household Activities	Housework	Laundry	83	6	True	False	False	True	0.7896495999884792
video_on	action	16	eeg	2	LTJy8eU0uDo	Skiing	Participating_in_sports&Exercise&Recreation	Sports, Exercise, and Recreation	Participating in Sports, Exercise, or Recreation	Skiing, ice skating, snowboarding	369	1	True	True	True	True	0.8393319000024348
video_on	action	16	eeg	2	O7e5pjiie0A	Doing nails	Grooming	Personal Care	Grooming	Washing, dressing and grooming oneself	167	4	True	False	False	True	0.676084600010654
video_on	action	16	eeg	2	IvtsbZOjnZg	Shoveling snow	Exterior_maintenance&Repair&Decoration	Household Activities	Exterior Maintenance, Repair, & Decoration	Exterior cleaning	183	12	True	False	False	True	0.9885701000166592
video_on	action	16	eeg	2	oZmTSgvBDHc	Surfing	Participating_in_sports&Exercise&Recreation	Sports, Exercise, and Recreation	Participating in Sports, Exercise, or Recreation	Participating in water sports	376	1	True	True	False	False	0.7887738000135869
video_on	action	16	eeg	2	YEi46GkyHLY	Swimming	Participating_in_sports&Exercise&Recreation	Sports, Exercise, and Recreation	Participating in Sports, Exercise, or Recreation	Participating in water sports	377	1	True	True	True	True	0.9499637999979312
video_on	action	16	eeg	2	gz9CTEaAJ6s	Making a sandwich	Food&Drink_prep.&Presentation&Clean-up	Eating and drinking Activities	Food & Drink Prep., Presentation, & Clean-up	Food and drink preparation	129	5	True	False	False	True	0.8833228999865241
video_on	action	16	eeg	2	RlSw6OHGNyk	Slacklining	Relaxing&Leisure	Socializing, Relaxing, and Leisure	Relaxing and Leisure	Playing games	371	3	True	False	False	True	0.8611432999896351
video_on	action	16	eeg	2	NEI2r2GoUgc	Trimming branches or hedges	Lawn&Garden&Houseplants	Household Activities	Lawn, Garden, and Houseplants	Lawn, garden, and houseplant care	381	9	True	False	False	True	0.8647066000266932
video_on	action	16	eeg	2	khbjoQw7fT4	Bungee jumping	Participating_in_sports&Exercise&Recreation	Sports, Exercise, and Recreation	Participating in Sports, Exercise, or Recreation	Playing sports	154	1	True	True	False	False	0.6171078000043053
video_on	action	16	eeg	2	e1fB1JiiifA	Fixing the roof	Exterior_maintenance&Repair&Decoration	Household Activities	Exterior Maintenance, Repair, & Decoration	Exterior repair, improvements, & decoration	311	12	True	False	False	True	0.6290080000180751
video_on	action	16	eeg	2	FUZebnIMS6I	Kayaking	Participating_in_sports&Exercise&Recreation	Sports, Exercise, and Recreation	Participating in Sports, Exercise, or Recreation	Participating in water sports	254	1	True	True	True	True	0.7952812999719754
video_on	action	16	eeg	2	rLXmYeff0Kw	Ping-pong	Participating_in_sports&Exercise&Recreation	Sports, Exercise, and Recreation	Participating in Sports, Exercise, or Recreation	Playing racquet sports	119	1	True	True	True	True	0.717173199984245
video_on	action	16	eeg	2	gIuQSAc1hgM	BMX	Participating_in_sports&Exercise&Recreation	Sports, Exercise, and Recreation	Participating in Sports, Exercise, or Recreation	Biking	274	1	True	True	True	True	0.591335800010711
video_on	action	16	eeg	2	lhRd6E0VnVg	Ice fishing	Participating_in_sports&Exercise&Recreation	Sports, Exercise, and Recreation	Participating in Sports, Exercise, or Recreation	Fishing	324	1	True	True	False	False	0.7206870999943931
video_on	action	16	eeg	2	qxER8s67W8o	Hula hoop	Relaxing&Leisure	Socializing, Relaxing, and Leisure	Relaxing and Leisure	Playing games	322	3	True	False	True	False	0.5871929999848362
video_on	action	16	eeg	2	N9j1j7ioUvE	Spread mulch	Lawn&Garden&Houseplants	Household Activities	Lawn, Garden, and Houseplants	Lawn, garden, and houseplant care	374	9	True	False	False	True	0.7127045999804977
video_on	action	16	eeg	2	9iQAebdh8mo	Braiding hair	Grooming	Personal Care	Grooming	Washing, dressing and grooming oneself	285	4	True	False	False	True	0.9677954000071622
video_on	action	16	eeg	2	I8-InNmJyRQ	Sumo	Participating_in_sports&Exercise&Recreation	Sports, Exercise, and Recreation	Participating in Sports, Exercise, or Recreation	Wrestling	375	1	True	True	True	True	0.6413406999781728
video_on	action	16	eeg	2	s-LfSqSum5E	Laying tile	Interior_maintenance&Repair&Decoration	Household Activities	Interior Maintenance, Repair, & Decoration	Interior arrangement, decoration, & repairs	330	7	True	False	False	True	0.657615900010569
video_on	action	16	eeg	2	rqseDwySv7o	Playing pool	Relaxing&Leisure	Socializing, Relaxing, and Leisure	Relaxing and Leisure	Playing games	348	3	True	False	True	False	0.9201576999912504
video_on	action	16	eeg	2	AGve8M5c86w	Canoeing	Participating_in_sports&Exercise&Recreation	Sports, Exercise, and Recreation	Participating in Sports, Exercise, or Recreation	Boating	292	1	True	True	True	True	0.8304158999817446
video_on	action	16	eeg	2	Vnv3hsRT7Fs	Brushing teeth	Grooming	Personal Care	Grooming	Washing, dressing and grooming oneself	148	4	True	False	False	True	0.9803410000167788
video_on	action	16	eeg	2	QwH7vlXleX4	Hammer throw	Participating_in_sports&Exercise&Recreation	Sports, Exercise, and Recreation	Participating in Sports, Exercise, or Recreation	Playing sports	224	1	True	True	True	True	0.59982219999074
video_on	action	16	eeg	2	cWfOC21T3Fg	Drinking coffee	Food&Drink_prep.&Presentation&Clean-up	Eating and drinking Activities	Food & Drink Prep., Presentation, & Clean-up	Eating and Drinking	68	5	True	False	False	True	0.574487500009127
video_on	action	16	eeg	2	PRVxO4EUIMk	Walking the dog	Animals&Pets	Household Activities	Animals and Pets	Walking / exercising / playing with animals	221	8	True	False	False	True	0.6058114999905229
video_on	action	16	eeg	2	x2LqhMfBJEg	Javelin throw	Participating_in_sports&Exercise&Recreation	Sports, Exercise, and Recreation	Participating in Sports, Exercise, or Recreation	Playing sports	116	1	True	True	True	True	0.0050730000075418
video_on	action	16	eeg	2	_-93KxGjPn0	Doing step aerobics	Participating_in_sports&Exercise&Recreation	Sports, Exercise, and Recreation	Participating in Sports, Exercise, or Recreation	Doing aerobics	230	1	True	True	False	False	0.8803191999904811
video_on	action	16	eeg	2	1wgYo0uVC8Q	Drum corps	Arts&Entertainment	Socializing, Relaxing, and Leisure	Arts and Entertainment	Playing musical instruments	307	2	True	False	False	True	0.5953368000045884
video_on	action	16	eeg	2	xIGO2BepvWE	Painting	Interior_maintenance&Repair&Decoration	Household Activities	Interior Maintenance, Repair, & Decoration	Interior arrangement, decoration, & repairs	217	7	True	False	False	True	0.7329344000027049
video_on	action	16	eeg	2	yBJ5VDRNjpQ	Discus throw	Participating_in_sports&Exercise&Recreation	Sports, Exercise, and Recreation	Participating in Sports, Exercise, or Recreation	Playing sports	92	1	True	True	True	True	0.750335399992764
video_on	action	16	eeg	2	Y1IfPzKNpME	Shuffleboard	Relaxing&Leisure	Socializing, Relaxing, and Leisure	Relaxing and Leisure	Playing games	368	3	True	False	False	True	0.7994420000177342
video_on	action	16	eeg	2	ZKN76ZPMOqg	Cricket	Participating_in_sports&Exercise&Recreation	Sports, Exercise, and Recreation	Participating in Sports, Exercise, or Recreation	Playing sports	82	1	True	True	True	True	0.837543600006029
video_on	action	16	eeg	2	I8Y1dmG0aoI	Using the rowing machine	Participating_in_sports&Exercise&Recreation	Sports, Exercise, and Recreation	Participating in Sports, Exercise, or Recreation	Using cardiovascular equipment	384	1	True	True	True	True	0.9315077000064776
video_on	action	16	eeg	2	QKUGfxZddRU	Making an omelette	Food&Drink_prep.&Presentation&Clean-up	Eating and drinking Activities	Food & Drink Prep., Presentation, & Clean-up	Food and drink preparation	334	5	True	False	False	True	0.8778122999938205
video_on	action	16	eeg	2	HiBrNJiOqR4	Preparing salad	Food&Drink_prep.&Presentation&Clean-up	Eating and drinking Activities	Food & Drink Prep., Presentation, & Clean-up	Food and drink preparation	96	5	True	False	False	True	0.3472598999796901
video_on	action	16	eeg	2	S5eHFMsm0PA	Playing kickball	Participating_in_sports&Exercise&Recreation	Sports, Exercise, and Recreation	Participating in Sports, Exercise, or Recreation	Playing sports	257	1	True	True	True	True	0.685189400013769
video_on	action	16	eeg	2	NfF6RqttFCg	Bullfighting	Participating_in_sports&Exercise&Recreation	Sports, Exercise, and Recreation	Participating in Sports, Exercise, or Recreation	Participating in rodeo competitions	288	1	True	True	True	True	0.7552322999981698
video_on	action	16	eeg	2	LWZwjP0FRts	Hurling	Participating_in_sports&Exercise&Recreation	Sports, Exercise, and Recreation	Participating in Sports, Exercise, or Recreation	Playing sports	323	1	True	True	True	True	0.6066080000018701
video_on	action	16	eeg	2	Y3yABGFDgX4	Clean and jerk	Participating_in_sports&Exercise&Recreation	Sports, Exercise, and Recreation	Participating in Sports, Exercise, or Recreation	Weightlifting	84	1	True	True	True	True	0.0051843999826814
video_on	action	16	eeg	2	VFt0UnLRY14	Doing crunches	Participating_in_sports&Exercise&Recreation	Sports, Exercise, and Recreation	Participating in Sports, Exercise, or Recreation	Working out	305	1	True	True	True	True	0.6587622000079136
video_on	action	16	eeg	2	wXOgUiq_PIQ	Playing water polo	Participating_in_sports&Exercise&Recreation	Sports, Exercise, and Recreation	Participating in Sports, Exercise, or Recreation	Participating in water sports	130	1	True	True	True	True	0.9808483000088016
video_on	action	16	eeg	2	4pdLdQVofJU	Playing blackjack	Arts&Entertainment	Socializing, Relaxing, and Leisure	Arts and Entertainment	Attending gambling establishments	343	2	False	False	False	True	0.0
video_on	action	16	eeg	2	-uy1jLePSI0	Croquet	Participating_in_sports&Exercise&Recreation	Sports, Exercise, and Recreation	Participating in Sports, Exercise, or Recreation	Playing sports	299	1	True	True	False	False	0.005110500002047
video_on	action	16	eeg	2	iKzw75jNnlU	Shaving	Grooming	Personal Care	Grooming	Washing, dressing and grooming oneself	190	4	True	False	False	True	0.7100325000064913
video_on	action	16	eeg	2	jewwts_Gits	Playing field hockey	Participating_in_sports&Exercise&Recreation	Sports, Exercise, and Recreation	Participating in Sports, Exercise, or Recreation	Playing hockey	94	1	True	True	True	True	0.7699245999974664
video_on	action	16	eeg	2	d1aHkna1hIY	Using the pommel horse	Participating_in_sports&Exercise&Recreation	Sports, Exercise, and Recreation	Participating in Sports, Exercise, or Recreation	Doing gymnastics	114	1	True	True	True	True	0.7644574999867473
video_on	action	16	eeg	2	XmeA4q2Xvew	Sharpening knives	Appliances&Tools&Toys	Household Activities	Appliances, Tools, and Toys	Appliance, tool, and toy set-up, repair, & maintenance (by self)	365	10	True	False	False	True	0.8069251000124495
video_on	action	16	eeg	2	WKOq1bAYD8Q	Getting a tattoo	Grooming	Personal Care	Grooming	Washing, dressing and grooming	187	4	True	False	False	True	0.7913807000149973
video_on	action	16	eeg	2	rIMLGL10pB8	Chopping wood	Interior_maintenance&Repair&Decoration	Household Activities	Interior Maintenance, Repair, & Decoration	Heating and cooling	110	7	True	False	False	True	0.6764128000068013
video_on	action	16	eeg	2	PbxI9kabkTA	Doing motocross	Participating_in_sports&Exercise&Recreation	Sports, Exercise, and Recreation	Participating in Sports, Exercise, or Recreation	Playing sports	243	1	True	True	False	False	0.6896753000037279
video_on	action	16	eeg	2	PmFP4WbIP5E	Wakeboarding	Participating_in_sports&Exercise&Recreation	Sports, Exercise, and Recreation	Participating in Sports, Exercise, or Recreation	Participating in water sports	385	1	True	True	True	True	0.8648596999992151
video_on	action	16	eeg	2	4cQ3qCY8PyE	Playing violin	Arts&Entertainment	Socializing, Relaxing, and Leisure	Arts and Entertainment	Playing musical instruments	234	2	True	False	False	True	0.6658928999968339
video_on	action	16	eeg	2	7vX9BgEZUUs	Camel ride	Participating_in_sports&Exercise&Recreation	Sports, Exercise, and Recreation	Participating in Sports, Exercise, or Recreation	Playing sports	291	1	True	True	False	False	0.7734076000051573
video_on	action	16	eeg	2	3AsPJDbWE48	Capoeira	Participating_in_sports&Exercise&Recreation	Sports, Exercise, and Recreation	Participating in Sports, Exercise, or Recreation	Participating in martial arts	294	1	True	True	False	False	0.7333746000076644
video_on	action	16	eeg	2	xgr6p8L4emY	Playing ice hockey	Participating_in_sports&Exercise&Recreation	Sports, Exercise, and Recreation	Participating in Sports, Exercise, or Recreation	Playing hockey	347	1	True	True	True	True	0.9847091999836266
video_on	action	16	eeg	2	q8PqGbrio94	Mooping floor	Housework	Household Activities	Housework	Interior cleaning	335	6	True	False	False	True	0.7270573000132572
video_on	action	16	eeg	2	s-ZYiz0kQks	Swinging at the playground	Arts&Entertainment	Socializing, Relaxing, and Leisure	Arts and Entertainment	Park activities	378	2	True	False	False	True	0.7615547000023071
video_on	action	16	eeg	2	pBqO_bXqrTQ	Painting furniture	Interior_maintenance&Repair&Decoration	Household Activities	Interior Maintenance, Repair, & Decoration	Building and repairing furniture	337	7	False	False	False	True	0.0
video_on	action	16	meg	3	M_EnsXQDVcU	Getting a tattoo	Grooming	Personal Care	Grooming	Washing, dressing and grooming	187	4	True	False	False	True	0.487002274583574
video_on	action	16	meg	3	K4ROh-uQUDI	Tumbling	Participating_in_sports&Exercise&Recreation	Sports, Exercise, and Recreation	Participating in Sports, Exercise, or Recreation	Doing gymnastics	258	1	True	True	True	True	0.4310949242226343
video_on	action	16	meg	3	sCs5wYf-i7I	Beach soccer	Participating_in_sports&Exercise&Recreation	Sports, Exercise, and Recreation	Participating in Sports, Exercise, or Recreation	Playing soccer	278	1	True	True	True	True	0.4071310519066173
video_on	action	16	meg	3	ISQM3VZKapM	Making a lemonade	Food&Drink_prep.&Presentation&Clean-up	Eating and drinking Activities	Food & Drink Prep., Presentation, & Clean-up	Food and drink preparation	333	5	True	False	False	True	0.3271916068333667
video_on	action	16	meg	3	Um0wcuNAmWA	Sharpening knives	Appliances&Tools&Toys	Household Activities	Appliances, Tools, and Toys	Appliance, tool, and toy set-up, repair, & maintenance (by self)	365	10	True	False	False	True	0.3913958272642048
video_on	action	16	meg	3	lImTK6hJuSY	Camel ride	Participating_in_sports&Exercise&Recreation	Sports, Exercise, and Recreation	Participating in Sports, Exercise, or Recreation	Playing sports	291	1	True	True	False	False	0.5683961246049876
video_on	action	16	meg	3	aYbWbMsHCPg	Kayaking	Participating_in_sports&Exercise&Recreation	Sports, Exercise, and Recreation	Participating in Sports, Exercise, or Recreation	Participating in water sports	254	1	True	True	True	True	0.3353553526649193
video_on	action	16	meg	3	1MLbm0Bar7Y	Longboarding	Participating_in_sports&Exercise&Recreation	Sports, Exercise, and Recreation	Participating in Sports, Exercise, or Recreation	Playing sports	331	1	True	True	False	False	0.3354631199072173
video_on	action	16	meg	3	6ezGEOZQkbI	Waxing skis	Appliances&Tools&Toys	Household Activities	Appliances, Tools, and Toys	Appliance, tool, and toy set-up, repair, & maintenance (by self)	387	10	True	False	False	True	0.3608952831455099
video_on	action	16	meg	3	eI_1t6ZoqUU	Playing drums	Arts&Entertainment	Socializing, Relaxing, and Leisure	Arts and Entertainment	Playing musical instruments	346	2	True	False	False	True	0.4156869256003119
video_on	action	16	meg	3	5oH2CzTGEgA	Making a cake	Food&Drink_prep.&Presentation&Clean-up	Eating and drinking Activities	Food & Drink Prep., Presentation, & Clean-up	Food and drink preparation	332	5	True	False	False	True	0.337339537747539
video_on	action	16	meg	3	o4WsIOxOrR8	Croquet	Participating_in_sports&Exercise&Recreation	Sports, Exercise, and Recreation	Participating in Sports, Exercise, or Recreation	Playing sports	299	1	True	True	False	False	0.9235021636450256
video_on	action	16	meg	3	TgZuuP_LJz8	Putting in contact lenses	Grooming	Personal Care	Grooming	Washing, dressing and grooming oneself	351	4	True	False	False	True	0.8249054017942399
video_on	action	16	meg	3	M7DgXzo0ezk	Capoeira	Participating_in_sports&Exercise&Recreation	Sports, Exercise, and Recreation	Participating in Sports, Exercise, or Recreation	Participating in martial arts	294	1	True	True	False	False	0.0050970584379683
video_on	action	16	meg	3	JlYd45twrvQ	High jump	Participating_in_sports&Exercise&Recreation	Sports, Exercise, and Recreation	Participating in Sports, Exercise, or Recreation	Playing sports	195	1	True	True	True	True	0.3698203426502005
video_on	action	16	meg	3	1xTKfPzL0aY	Knitting	Housework	Household Activities	Housework	Sewing, repairing, & maintaining textiles	329	6	True	False	False	True	0.4739081020125013
video_on	action	16	meg	3	sd4TX3YYzzI	Vacuuming floor	Housework	Household Activities	Housework	Interior cleaning	160	6	True	False	False	True	0.386247451093368
video_on	action	16	meg	3	R0_VTv0lxzQ	Kite flying	Relaxing&Leisure	Socializing, Relaxing, and Leisure	Relaxing and Leisure	Playing games	327	3	True	False	False	True	0.5543887982439628
video_on	action	16	meg	3	g3_Fe2pX7xE	Cleaning sink	Interior_maintenance&Repair&Decoration	Household Activities	Interior Maintenance, Repair, & Decoration	Interior arrangement, decoration, & repairs	297	7	True	False	False	True	0.5697889482726168
video_on	action	16	meg	3	N3rObZ1TFrk	Rope skipping	Participating_in_sports&Exercise&Recreation	Sports, Exercise, and Recreation	Participating in Sports, Exercise, or Recreation	Working out	361	1	True	True	True	True	0.4680624084012379
video_on	action	16	meg	3	Tk3EEfzyF1o	Painting furniture	Interior_maintenance&Repair&Decoration	Household Activities	Interior Maintenance, Repair, & Decoration	Building and repairing furniture	337	7	True	False	False	True	0.4094792910291289
video_on	action	16	meg	3	C0E-Pgu1cMw	Javelin throw	Participating_in_sports&Exercise&Recreation	Sports, Exercise, and Recreation	Participating in Sports, Exercise, or Recreation	Playing sports	116	1	True	True	True	True	0.5150736786818015
video_on	action	16	meg	3	brJIGpZ3j6Y	Clean and jerk	Participating_in_sports&Exercise&Recreation	Sports, Exercise, and Recreation	Participating in Sports, Exercise, or Recreation	Weightlifting	84	1	True	True	True	True	0.5711220018729364
video_on	action	16	meg	3	CclRYasxxio	Using parallel bars	Participating_in_sports&Exercise&Recreation	Sports, Exercise, and Recreation	Participating in Sports, Exercise, or Recreation	Doing gymnastics	88	1	True	True	False	False	0.3779970688519825
video_on	action	16	meg	3	HUzoMRdSrZo	Futsal	Participating_in_sports&Exercise&Recreation	Sports, Exercise, and Recreation	Participating in Sports, Exercise, or Recreation	Playing soccer	315	1	True	True	True	True	0.4754651424282201
video_on	action	16	meg	3	c_oboSuiY3c	Making a sandwich	Food&Drink_prep.&Presentation&Clean-up	Eating and drinking Activities	Food & Drink Prep., Presentation, & Clean-up	Food and drink preparation	129	5	True	False	False	True	0.4036133721929218
video_on	action	16	meg	3	jMKsCej0p64	Windsurfing	Participating_in_sports&Exercise&Recreation	Sports, Exercise, and Recreation	Participating in Sports, Exercise, or Recreation	Participating in water sports	237	1	True	True	False	False	0.443189910331057
video_on	action	16	meg	3	54j8jUOfG4U	Scuba diving	Participating_in_sports&Exercise&Recreation	Sports, Exercise, and Recreation	Participating in Sports, Exercise, or Recreation	Participating in water sports	364	1	True	True	False	False	0.4039472393324104
video_on	action	16	meg	3	GfThlz89zfw	Decorating the Christmas tree	Interior_maintenance&Repair&Decoration	Household Activities	Interior Maintenance, Repair, & Decoration	Interior arrangement, decoration, & repairs	302	7	True	False	False	True	0.3312076723032078
video_on	action	16	meg	3	zpaCWSrkTcE	Playing bagpipes	Arts&Entertainment	Socializing, Relaxing, and Leisure	Arts and Entertainment	Playing musical instruments	136	2	True	False	False	True	0.2922439282829145
video_on	action	16	meg	3	wiAs68-V6o8	Rock climbing	Participating_in_sports&Exercise&Recreation	Sports, Exercise, and Recreation	Participating in Sports, Exercise, or Recreation	Climbing, spelunking, caving	188	1	True	True	True	True	0.3724167181098892
video_on	action	16	meg	3	6s0zKYmtFo8	Cheerleading	Arts&Entertainment	Socializing, Relaxing, and Leisure	Arts and Entertainment	Dancing	140	2	True	False	True	False	0.4765974531310348
video_on	action	16	meg	3	tMEPtO9HE4g	Playing water polo	Participating_in_sports&Exercise&Recreation	Sports, Exercise, and Recreation	Participating in Sports, Exercise, or Recreation	Participating in water sports	130	1	True	True	True	True	0.4228901242040592
video_on	action	16	meg	3	KI1hSLO1FaE	Volleyball	Participating_in_sports&Exercise&Recreation	Sports, Exercise, and Recreation	Participating in Sports, Exercise, or Recreation	Playing volleyball	123	1	True	True	True	True	0.3589252859073895
video_on	action	16	meg	3	KTJ90clG0Qw	Long jump	Participating_in_sports&Exercise&Recreation	Sports, Exercise, and Recreation	Participating in Sports, Exercise, or Recreation	Playing sports	80	1	True	True	True	True	0.3789742188764649
video_on	action	16	meg	3	W_nG-GLc9zc	Smoking a cigarette	Relaxing&Leisure	Socializing, Relaxing, and Leisure	Relaxing and Leisure	Tobacco and drug use	201	3	True	False	False	True	0.3993503778656304
video_on	action	16	meg	3	Sl9GMOTaqtc	Playing guitarra	Arts&Entertainment	Socializing, Relaxing, and Leisure	Arts and Entertainment	Playing musical instruments	251	2	True	False	False	True	0.357369754838146
video_on	action	16	meg	3	0mmmYUAbmCg	Cutting the grass	Lawn&Garden&Houseplants	Household Activities	Lawn, Garden, and Houseplants	Lawn, garden, and houseplant care	301	9	True	False	False	True	0.4709784631540969
video_on	action	16	meg	3	wctWUdQ96lM	Rock-paper-scissors	Relaxing&Leisure	Socializing, Relaxing, and Leisure	Relaxing and Leisure	Playing games	358	3	True	False	False	True	0.4456317288495484
video_on	action	16	meg	3	1DGgC1sclpY	Playing saxophone	Arts&Entertainment	Socializing, Relaxing, and Leisure	Arts and Entertainment	Playing musical instruments	109	2	True	False	False	True	0.4931498372170608
video_on	action	16	meg	3	PXggOQuKJDI	Assembling bicycle	Vehicles	Household Activities	Vehicles	Vehicle repair and maintenance (by self)	273	11	True	False	False	True	0.3654109418475855
video_on	action	16	meg	3	RvSe_IQMav0	Archery	Participating_in_sports&Exercise&Recreation	Sports, Exercise, and Recreation	Participating in Sports, Exercise, or Recreation	Playing sports	250	1	True	True	False	False	0.5356967665284174
video_on	action	16	meg	3	m9c6v6gBUCs	Springboard diving	Participating_in_sports&Exercise&Recreation	Sports, Exercise, and Recreation	Participating in Sports, Exercise, or Recreation	Participating in water sports	193	1	True	True	True	True	0.5896694383263821
video_on	action	16	meg	3	PIkJRReT9xw	Disc dog	Animals&Pets	Household Activities	Animals and Pets	Walking / exercising / playing with animals	303	8	True	False	False	True	0.3504252579859894
video_on	action	16	meg	3	fphKf1fH6nk	Shoveling snow	Exterior_maintenance&Repair&Decoration	Household Activities	Exterior Maintenance, Repair, & Decoration	Exterior cleaning	183	12	True	False	False	True	0.7745294993965217
video_on	action	16	meg	3	qRMmq_ijO68	Using the pommel horse	Participating_in_sports&Exercise&Recreation	Sports, Exercise, and Recreation	Participating in Sports, Exercise, or Recreation	Doing gymnastics	114	1	True	True	True	True	0.3261670633728499
video_on	action	16	meg	3	rHH-DpnFdlg	Hand washing clothes	Housework	Household Activities	Housework	Laundry	232	6	True	False	False	True	0.3901699371654104
video_on	action	16	meg	3	wx3Q655P7fI	Canoeing	Participating_in_sports&Exercise&Recreation	Sports, Exercise, and Recreation	Participating in Sports, Exercise, or Recreation	Boating	292	1	True	True	False	False	0.3651537494388321
video_on	action	16	meg	3	kQZgn7xuNVQ	Snatch	Participating_in_sports&Exercise&Recreation	Sports, Exercise, and Recreation	Participating in Sports, Exercise, or Recreation	Weightlifting	79	1	True	True	True	True	0.397942762614548
video_on	action	16	meg	3	2SBTnunPQrQ	Polishing shoes	Housework	Household Activities	Housework	Sewing, repairing, & maintaining textiles	227	6	True	False	False	True	0.4094602732820931
video_on	action	16	meg	3	ZCzSfPKmg0s	Elliptical trainer	Participating_in_sports&Exercise&Recreation	Sports, Exercise, and Recreation	Participating in Sports, Exercise, or Recreation	Using cardiovascular equipment	308	1	True	True	False	False	0.326966714412265
video_on	action	16	meg	3	FnD0279OIfU	Hurling	Participating_in_sports&Exercise&Recreation	Sports, Exercise, and Recreation	Participating in Sports, Exercise, or Recreation	Playing sports	323	1	True	True	True	True	0.3770501057297224
video_on	action	16	meg	3	Ee5HlZKPAZQ	Beer pong	Relaxing&Leisure	Socializing, Relaxing, and Leisure	Relaxing and Leisure	Playing games	280	3	True	False	False	True	0.4873325192929769
video_on	action	16	meg	3	URzAkL6m1lQ	Skateboarding	Participating_in_sports&Exercise&Recreation	Sports, Exercise, and Recreation	Participating in Sports, Exercise, or Recreation	Playing sports	176	1	True	True	False	False	0.303338218580393
video_on	action	16	meg	3	z2hEIeq_m3Q	Hammer throw	Participating_in_sports&Exercise&Recreation	Sports, Exercise, and Recreation	Participating in Sports, Exercise, or Recreation	Playing sports	224	1	True	True	True	True	0.5195718289796787
video_on	action	16	meg	3	JLNn5OtzXiw	Doing motocross	Participating_in_sports&Exercise&Recreation	Sports, Exercise, and Recreation	Participating in Sports, Exercise, or Recreation	Playing sports	243	1	True	True	False	False	0.3757659549100935
video_on	action	16	meg	3	rqGjuyHuXRw	Doing kickboxing	Participating_in_sports&Exercise&Recreation	Sports, Exercise, and Recreation	Participating in Sports, Exercise, or Recreation	Participating in martial arts	70	1	True	True	True	True	0.3757309381035156
video_on	action	16	meg	3	W7QdnpiAiFs	Rollerblading	Participating_in_sports&Exercise&Recreation	Sports, Exercise, and Recreation	Participating in Sports, Exercise, or Recreation	Playing sports	359	1	True	True	False	False	0.4952463175741286
video_on	action	16	meg	3	p3uM-YNQwj0	Braiding hair	Grooming	Personal Care	Grooming	Washing, dressing and grooming oneself	285	4	True	False	False	True	0.4241760862387309
video_on	action	16	meg	3	ZBQChWP-jTk	Trimming branches or hedges	Lawn&Garden&Houseplants	Household Activities	Lawn, Garden, and Houseplants	Lawn, garden, and houseplant care	381	9	True	False	False	True	0.592291472652505
video_on	action	16	meg	3	IfpsgGqb5vM	Doing step aerobics	Participating_in_sports&Exercise&Recreation	Sports, Exercise, and Recreation	Participating in Sports, Exercise, or Recreation	Doing aerobics	230	1	True	True	False	False	0.3925761351420078
video_on	action	16	meg	3	7hMvaRXfZBs	Belly dance	Arts&Entertainment	Socializing, Relaxing, and Leisure	Arts and Entertainment	Dancing	247	2	True	False	False	True	0.7925088183492335
video_on	action	16	meg	3	2PeUoBmNuI8	Sailing	Participating_in_sports&Exercise&Recreation	Sports, Exercise, and Recreation	Participating in Sports, Exercise, or Recreation	Participating in water sports	240	1	True	True	False	False	0.3207107807993452
video_on	action	16	meg	3	834OF6sT7cE	Playing racquetball	Participating_in_sports&Exercise&Recreation	Sports, Exercise, and Recreation	Participating in Sports, Exercise, or Recreation	Playing racquet sports	253	1	True	True	False	False	0.4255332893608283
video_on	action	16	meg	3	CK2Uk0Ni_CA	Grooming dog	Animals&Pets	Household Activities	Animals and Pets	Care for animals and pets (not veterinary care)	317	8	True	False	False	True	0.3609958055294555
video_on	action	16	meg	3	ga4FAyHO4hM	Horseback riding	Participating_in_sports&Exercise&Recreation	Sports, Exercise, and Recreation	Participating in Sports, Exercise, or Recreation	Participating in equestrian sports	175	1	True	True	False	False	0.2972742736656073
video_on	action	16	meg	3	ZrjSqK7xPLE	Playing pool	Relaxing&Leisure	Socializing, Relaxing, and Leisure	Relaxing and Leisure	Playing games	348	3	True	False	True	False	0.4414245802890946
video_on	action	16	meg	3	dYrq13tJ2CY	Hula hoop	Relaxing&Leisure	Socializing, Relaxing, and Leisure	Relaxing and Leisure	Playing games	322	3	True	False	False	True	0.4336110025233211
video_on	action	16	meg	3	Mmm1C6YYmTc	Ping-pong	Participating_in_sports&Exercise&Recreation	Sports, Exercise, and Recreation	Participating in Sports, Exercise, or Recreation	Playing racquet sports	119	1	True	True	True	True	0.3719002202124102
video_on	action	16	meg	3	TC1kgbUnHfs	Snow tubing	Participating_in_sports&Exercise&Recreation	Sports, Exercise, and Recreation	Participating in Sports, Exercise, or Recreation	Skiing, ice skating, snowboarding	372	1	True	True	False	False	0.4484554116806976
video_on	action	16	meg	3	kD90qBsrO9k	Blow-drying hair	Grooming	Personal Care	Grooming	Washing, dressing and grooming oneself	281	4	True	False	False	True	0.3858960755533189
video_on	action	16	meg	3	eWuJGFeLhm0	Cleaning windows	Housework	Household Activities	Housework	Interior cleaning	143	6	True	False	False	True	0.3540579497966973
video_on	action	16	meg	3	vFaeVqsHEeg	Powerbocking	Participating_in_sports&Exercise&Recreation	Sports, Exercise, and Recreation	Participating in Sports, Exercise, or Recreation	Playing sports	350	1	True	True	False	False	0.5783064846000343
video_on	action	16	meg	3	zenWPR1t8yQ	Pole vault	Participating_in_sports&Exercise&Recreation	Sports, Exercise, and Recreation	Participating in Sports, Exercise, or Recreation	Playing sports	106	1	True	True	True	True	0.3144720537202374
video_on	action	16	meg	3	l0SiuKNm7CY	Brushing hair	Grooming	Personal Care	Grooming	Washing, dressing and grooming oneself	125	4	True	False	False	True	0.4093217154022568
video_on	action	16	meg	3	K5D0Tb_NuAU	Skiing	Participating_in_sports&Exercise&Recreation	Sports, Exercise, and Recreation	Participating in Sports, Exercise, or Recreation	Skiing, ice skating, snowboarding	369	1	True	True	True	True	0.3867020658399269
video_on	action	16	meg	3	veDz4gnuZGI	Playing congas	Arts&Entertainment	Socializing, Relaxing, and Leisure	Arts and Entertainment	Playing musical instruments	345	2	True	False	False	True	0.4292662016887334
video_on	action	16	meg	3	SRAl9oXONho	Using uneven bars	Participating_in_sports&Exercise&Recreation	Sports, Exercise, and Recreation	Participating in Sports, Exercise, or Recreation	Doing gymnastics	192	1	True	True	True	True	0.4511369142055628
video_on	action	16	meg	3	u8Fs7osC2l4	Painting fence	Exterior_maintenance&Repair&Decoration	Household Activities	Exterior Maintenance, Repair, & Decoration	Painting fence	336	12	True	False	False	True	0.395281183446059
video_on	action	16	meg	3	DIueC06QDto	Doing crunches	Participating_in_sports&Exercise&Recreation	Sports, Exercise, and Recreation	Participating in Sports, Exercise, or Recreation	Working out	305	1	True	True	False	False	1.090108506819888
video_on	action	16	meg	3	Gkk6nrHS2H0	Shaving	Grooming	Personal Care	Grooming	Washing, dressing and grooming oneself	190	4	True	False	False	True	0.3157752222887211
video_on	action	16	meg	3	Yaa63R-lk9Q	Carving jack-o-lanterns	Interior_maintenance&Repair&Decoration	Household Activities	Interior Maintenance, Repair, & Decoration	Interior arrangement, decoration, & repairs	295	7	True	False	False	True	0.7959966130292742
video_on	action	16	meg	3	gnhKKoSkQRM	Zumba	Participating_in_sports&Exercise&Recreation	Sports, Exercise, and Recreation	Participating in Sports, Exercise, or Recreation	Doing aerobics	69	1	True	True	False	False	0.4823873009736417
video_on	action	16	meg	3	UkV_7QNBWjc	Playing violin	Arts&Entertainment	Socializing, Relaxing, and Leisure	Arts and Entertainment	Playing musical instruments	234	2	True	False	False	True	0.3567110766307451
video_on	action	16	meg	3	qRPqL9NILG8	Bullfighting	Participating_in_sports&Exercise&Recreation	Sports, Exercise, and Recreation	Participating in Sports, Exercise, or Recreation	Participating in rodeo competitions	288	1	True	True	False	False	0.3081753677906818
video_on	action	16	meg	3	RWEqNsKtq7o	Tango	Arts&Entertainment	Socializing, Relaxing, and Leisure	Arts and Entertainment	Dancing	73	2	True	False	False	True	0.356229595541663
video_on	action	16	meg	3	KjxZYOnku44	Bungee jumping	Participating_in_sports&Exercise&Recreation	Sports, Exercise, and Recreation	Participating in Sports, Exercise, or Recreation	Playing sports	154	1	True	True	False	False	0.3966003510740847
video_on	action	16	meg	3	5Alnfzi0UvE	Doing fencing	Participating_in_sports&Exercise&Recreation	Sports, Exercise, and Recreation	Participating in Sports, Exercise, or Recreation	Fencing	309	1	True	True	True	True	0.4367477235300612
video_on	action	16	meg	3	6enymw_MHPs	Ironing clothes	Housework	Household Activities	Housework	Laundry	83	6	True	False	False	True	0.508786652559138
video_on	action	16	meg	3	Z8fB5ySntcA	Fixing bicycle	Vehicles	Household Activities	Vehicles	Vehicle repair and maintenance (by self)	171	11	False	False	False	True	0.0
video_on	action	16	eeg	3	b690EfcJy50	Waterskiing	Participating_in_sports&Exercise&Recreation	Sports, Exercise, and Recreation	Participating in Sports, Exercise, or Recreation	Participating in water sports	386	1	True	True	True	True	0.5261719999834895
video_on	action	16	eeg	3	qNCfMkwP3NM	Smoking a cigarette	Relaxing&Leisure	Socializing, Relaxing, and Leisure	Relaxing and Leisure	Tobacco and drug use	201	3	True	False	False	True	0.6565487000043504
video_on	action	16	eeg	3	B86AX5i-oos	Drum corps	Arts&Entertainment	Socializing, Relaxing, and Leisure	Arts and Entertainment	Playing musical instruments	307	2	True	False	False	True	0.6045327000028919
video_on	action	16	eeg	3	LBajT9x1up4	Long jump	Participating_in_sports&Exercise&Recreation	Sports, Exercise, and Recreation	Participating in Sports, Exercise, or Recreation	Playing sports	80	1	True	True	True	True	0.7084890000114683
video_on	action	16	eeg	3	jSIL_mckpPY	Capoeira	Participating_in_sports&Exercise&Recreation	Sports, Exercise, and Recreation	Participating in Sports, Exercise, or Recreation	Participating in martial arts	294	1	True	True	False	False	0.7682385999942198
