event_name	task	subject	session	run	video_id	class_name	raw_superclass_name	superclass_level0	superclass_level1	superclass_level2	class_id	superclass_id	is_resp	stim_is_sports	resp_is_sports	resp_is_right	resp_time
video_on	action	3	meg	1	31WZM2GySRQ	Putting in contact lenses	Grooming	Personal Care	Grooming	Washing, dressing and grooming oneself	351	4	True	False	False	True	0.3735542404174339
video_on	action	3	meg	1	wZ-teiWX4mg	Playing ice hockey	Participating_in_sports&Exercise&Recreation	Sports, Exercise, and Recreation	Participating in Sports, Exercise, or Recreation	Playing hockey	347	1	True	True	True	True	0.3814046225161291
video_on	action	3	meg	1	S1Wr2e8JJZQ	Sumo	Participating_in_sports&Exercise&Recreation	Sports, Exercise, and Recreation	Participating in Sports, Exercise, or Recreation	Wrestling	375	1	True	True	True	True	0.395728868083097
video_on	action	3	meg	1	8P0fWWdDAco	Blow-drying hair	Grooming	Personal Care	Grooming	Washing, dressing and grooming oneself	281	4	True	False	False	True	0.4517030644055921
video_on	action	3	meg	1	n_wIeRUonkY	Disc dog	Animals&Pets	Household Activities	Animals and Pets	Walking / exercising / playing with animals	303	8	True	False	False	True	0.3558430346020031
video_on	action	3	meg	1	Wn7703Nm7Yc	Tango	Arts&Entertainment	Socializing, Relaxing, and Leisure	Arts and Entertainment	Dancing	73	2	True	False	False	True	0.2842414280748926
video_on	action	3	meg	1	foMdRvncUIc	Having an ice cream	Food&Drink_prep.&Presentation&Clean-up	Eating and drinking Activities	Food & Drink Prep., Presentation, & Clean-up	Eating and Drinking	320	5	True	False	False	True	0.3881939381826669
video_on	action	3	meg	1	O1Ydp0QZv4E	Making a lemonade	Food&Drink_prep.&Presentation&Clean-up	Eating and drinking Activities	Food & Drink Prep., Presentation, & Clean-up	Food and drink preparation	333	5	True	False	False	True	0.3885730845213402
video_on	action	3	meg	1	XTaeoiGdmZo	Elliptical trainer	Participating_in_sports&Exercise&Recreation	Sports, Exercise, and Recreation	Participating in Sports, Exercise, or Recreation	Using cardiovascular equipment	308	1	True	True	True	True	0.366830430139089
video_on	action	3	meg	1	OslLWNVKpCU	Preparing pasta	Food&Drink_prep.&Presentation&Clean-up	Eating and drinking Activities	Food & Drink Prep., Presentation, & Clean-up	Food and drink preparation	186	5	True	False	False	True	0.3085768276941962
video_on	action	3	meg	1	Df91OoSV36M	Springboard diving	Participating_in_sports&Exercise&Recreation	Sports, Exercise, and Recreation	Participating in Sports, Exercise, or Recreation	Participating in water sports	193	1	True	True	True	True	0.30964936511009
video_on	action	3	meg	1	HQ3iDrZeUBU	Knitting	Housework	Household Activities	Housework	Sewing, repairing, & maintaining textiles	329	6	True	False	False	True	0.4058480909152422
video_on	action	3	meg	1	3YeIm_7u3h4	Paintball	Participating_in_sports&Exercise&Recreation	Sports, Exercise, and Recreation	Participating in Sports, Exercise, or Recreation	Playing sports	141	1	True	True	False	False	0.3411366239888593
video_on	action	3	meg	1	K_MAhZRdYKE	Shuffleboard	Relaxing&Leisure	Socializing, Relaxing, and Leisure	Relaxing and Leisure	Playing games	368	3	True	False	False	True	0.5328446088533383
video_on	action	3	meg	1	wXlbmVZWzPE	Bullfighting	Participating_in_sports&Exercise&Recreation	Sports, Exercise, and Recreation	Participating in Sports, Exercise, or Recreation	Participating in rodeo competitions	288	1	True	True	False	False	0.4613815597840585
video_on	action	3	meg	1	2dxxCHuwiN8	Polishing forniture	Housework	Household Activities	Housework	Interior cleaning	156	6	True	False	False	True	0.3164933189109433
video_on	action	3	meg	1	QvRP8BToES4	Beer pong	Relaxing&Leisure	Socializing, Relaxing, and Leisure	Relaxing and Leisure	Playing games	280	3	True	False	False	True	0.2939473934529815
video_on	action	3	meg	1	LuRgu1lZAdE	Drinking coffee	Food&Drink_prep.&Presentation&Clean-up	Eating and drinking Activities	Food & Drink Prep., Presentation, & Clean-up	Eating and Drinking	68	5	True	False	False	True	0.3492260856437497
video_on	action	3	meg	1	ruz-jn-adCM	Bathing dog	Animals&Pets	Household Activities	Animals and Pets	Care for animals and pets (not veterinary care)	90	8	True	False	False	True	0.5501639898284338
video_on	action	3	meg	1	nfzQssGfb5w	Ballet	Arts&Entertainment	Socializing, Relaxing, and Leisure	Arts and Entertainment	Attending arts and entertainment	229	2	True	False	False	True	0.4134690532519016
video_on	action	3	meg	1	g6abBM_OKbw	Painting	Interior_maintenance&Repair&Decoration	Household Activities	Interior Maintenance, Repair, & Decoration	Interior arrangement, decoration, & repairs	217	7	True	False	False	True	0.3344728854426648
video_on	action	3	meg	1	bZgf6PMz5po	Belly dance	Arts&Entertainment	Socializing, Relaxing, and Leisure	Arts and Entertainment	Dancing	247	2	True	False	False	True	0.6618820571165998
video_on	action	3	meg	1	EecZ8wELwHo	Windsurfing	Participating_in_sports&Exercise&Recreation	Sports, Exercise, and Recreation	Participating in Sports, Exercise, or Recreation	Participating in water sports	237	1	True	True	True	True	0.3426785663177725
video_on	action	3	meg	1	YhbYkV9DC1c	Arm wrestling	Participating_in_sports&Exercise&Recreation	Sports, Exercise, and Recreation	Participating in Sports, Exercise, or Recreation	Wrestling	271	1	True	True	False	False	0.2948677893145941
video_on	action	3	meg	1	CiMTR718uFY	Using uneven bars	Participating_in_sports&Exercise&Recreation	Sports, Exercise, and Recreation	Participating in Sports, Exercise, or Recreation	Doing gymnastics	192	1	True	True	True	True	0.3753370734921191
video_on	action	3	meg	1	1m-Hr0Nyk6I	Carving jack-o-lanterns	Interior_maintenance&Repair&Decoration	Household Activities	Interior Maintenance, Repair, & Decoration	Interior arrangement, decoration, & repairs	295	7	True	False	False	True	0.0050979486550204
video_on	action	3	meg	1	06Qwv-g83rI	Playing bagpipes	Arts&Entertainment	Socializing, Relaxing, and Leisure	Arts and Entertainment	Playing musical instruments	136	2	True	False	False	True	0.3753751088806893
video_on	action	3	meg	1	J81pJtC91HE	High jump	Participating_in_sports&Exercise&Recreation	Sports, Exercise, and Recreation	Participating in Sports, Exercise, or Recreation	Playing sports	195	1	True	True	True	True	0.3277095304219983
video_on	action	3	meg	1	e6ldOwQ3kZc	Discus throw	Participating_in_sports&Exercise&Recreation	Sports, Exercise, and Recreation	Participating in Sports, Exercise, or Recreation	Playing sports	92	1	True	True	True	True	0.3377883029170334
video_on	action	3	meg	1	mvT4j4KLv6g	Putting on shoes	Grooming	Personal Care	Grooming	Washing, dressing and grooming oneself	352	4	True	False	False	True	0.3264794178830925
video_on	action	3	meg	1	AOrk7xf6HM8	Playing blackjack	Arts&Entertainment	Socializing, Relaxing, and Leisure	Arts and Entertainment	Attending gambling establishments	343	2	True	False	False	True	0.2874149675189983
video_on	action	3	meg	1	P3nv3dKnUMc	Shoveling snow	Exterior_maintenance&Repair&Decoration	Household Activities	Exterior Maintenance, Repair, & Decoration	Exterior cleaning	183	12	True	False	False	True	0.640244754642481
video_on	action	3	meg	1	VuMlw1C4Alk	Making a sandwich	Food&Drink_prep.&Presentation&Clean-up	Eating and drinking Activities	Food & Drink Prep., Presentation, & Clean-up	Food and drink preparation	129	5	True	False	False	True	0.4482684090326074
video_on	action	3	meg	1	OXdOhCJseHI	Hitting a pinata	Relaxing&Leisure	Socializing, Relaxing, and Leisure	Relaxing and Leisure	Playing games	321	3	True	False	False	True	0.6723620122938883
video_on	action	3	meg	1	pQiLnw5GG7Y	Polishing shoes	Housework	Household Activities	Housework	Sewing, repairing, & maintaining textiles	227	6	True	False	False	True	0.2707491309847682
video_on	action	3	meg	1	LwiVDc6gvC8	Cricket	Participating_in_sports&Exercise&Recreation	Sports, Exercise, and Recreation	Participating in Sports, Exercise, or Recreation	Playing sports	82	1	True	True	True	True	0.4229631072084885
video_on	action	3	meg	1	Vyj8KKAU25M	Brushing teeth	Grooming	Personal Care	Grooming	Washing, dressing and grooming oneself	148	4	True	False	False	True	0.5603952057426795
video_on	action	3	meg	1	Py-J1ZazHDM	Surfing	Participating_in_sports&Exercise&Recreation	Sports, Exercise, and Recreation	Participating in Sports, Exercise, or Recreation	Participating in water sports	376	1	True	True	False	False	0.6507271247974131
video_on	action	3	meg	1	P_D37uWqrTM	Smoking hookah	Relaxing&Leisure	Socializing, Relaxing, and Leisure	Relaxing and Leisure	Tobacco and drug use	189	3	True	False	False	True	0.3612917540012859
video_on	action	3	meg	1	DCt-fD41qS0	Doing nails	Grooming	Personal Care	Grooming	Washing, dressing and grooming oneself	167	4	True	False	False	True	0.6514117616752628
video_on	action	3	meg	1	ezyZdCkwaMs	Doing karate	Participating_in_sports&Exercise&Recreation	Sports, Exercise, and Recreation	Participating in Sports, Exercise, or Recreation	Participating in martial arts	99	1	True	True	False	False	0.4196645943447947
video_on	action	3	meg	1	S_A6QtCIIy4	Hanging wallpaper	Interior_maintenance&Repair&Decoration	Household Activities	Interior Maintenance, Repair, & Decoration	Interior arrangement, decoration, & repairs	319	7	True	False	False	True	0.2572384199884254
video_on	action	3	meg	1	Hzt9ke6DZsM	Archery	Participating_in_sports&Exercise&Recreation	Sports, Exercise, and Recreation	Participating in Sports, Exercise, or Recreation	Playing sports	250	1	True	True	True	True	0.5859278143034317
video_on	action	3	meg	1	NmHhTnbxL1k	Washing dishes	Food&Drink_prep.&Presentation&Clean-up	Eating and drinking Activities	Food & Drink Prep., Presentation, & Clean-up	Kitchen and food clean-up	213	5	True	False	False	True	0.5939689770166297
video_on	action	3	meg	1	wQFO91ZTfEE	Fixing bicycle	Vehicles	Household Activities	Vehicles	Vehicle repair and maintenance (by self)	171	11	True	False	False	True	0.6243076277605724
video_on	action	3	meg	1	cM4rTpZyeQw	Spinning	Participating_in_sports&Exercise&Recreation	Sports, Exercise, and Recreation	Participating in Sports, Exercise, or Recreation	Using cardiovascular equipment	117	1	True	True	True	True	0.3458825944398995
video_on	action	3	meg	1	68tyaL1veXQ	Putting on makeup	Grooming	Personal Care	Grooming	Washing, dressing and grooming oneself	76	4	True	False	False	True	0.3379585565126035
video_on	action	3	meg	1	4sniscrcPu8	Laying tile	Interior_maintenance&Repair&Decoration	Household Activities	Interior Maintenance, Repair, & Decoration	Interior arrangement, decoration, & repairs	330	7	True	False	False	True	0.3939475443621631
video_on	action	3	meg	1	DVRf3ECLYtg	Horseback riding	Participating_in_sports&Exercise&Recreation	Sports, Exercise, and Recreation	Participating in Sports, Exercise, or Recreation	Participating in equestrian sports	175	1	True	True	False	False	0.3462481567112263
video_on	action	3	meg	1	oV27az9VKbk	Fun sliding down	Arts&Entertainment	Socializing, Relaxing, and Leisure	Arts and Entertainment	Park activities	313	2	True	False	False	True	0.3411215305968653
video_on	action	3	meg	1	Rq4dvtrTZ0A	Trimming branches or hedges	Lawn&Garden&Houseplants	Household Activities	Lawn, Garden, and Houseplants	Lawn, garden, and houseplant care	381	9	True	False	False	True	0.4891736511199269
video_on	action	3	meg	1	pAqiukX3uOk	Doing step aerobics	Participating_in_sports&Exercise&Recreation	Sports, Exercise, and Recreation	Participating in Sports, Exercise, or Recreation	Doing aerobics	230	1	True	True	False	False	0.3392257988452911
video_on	action	3	meg	1	_5vt8fWwZ9Q	Javelin throw	Participating_in_sports&Exercise&Recreation	Sports, Exercise, and Recreation	Participating in Sports, Exercise, or Recreation	Playing sports	116	1	False	True	False	False	0.0
video_on	action	3	meg	1	rmT1xFMwbV8	Croquet	Participating_in_sports&Exercise&Recreation	Sports, Exercise, and Recreation	Participating in Sports, Exercise, or Recreation	Playing sports	299	1	True	True	True	True	0.0050997598445974
video_on	action	3	meg	1	wnOsg7pJhPQ	Pole vault	Participating_in_sports&Exercise&Recreation	Sports, Exercise, and Recreation	Participating in Sports, Exercise, or Recreation	Playing sports	106	1	True	True	True	True	0.3858013315475546
video_on	action	3	meg	1	-rhyElnS1KY	Rafting	Participating_in_sports&Exercise&Recreation	Sports, Exercise, and Recreation	Participating in Sports, Exercise, or Recreation	Boating	353	1	True	True	False	False	0.3872189041867386
video_on	action	3	meg	1	_RTGzrabtEI	Playing saxophone	Arts&Entertainment	Socializing, Relaxing, and Leisure	Arts and Entertainment	Playing musical instruments	109	2	True	False	False	True	0.339332358300453
video_on	action	3	meg	1	ONbhH8l5HX0	Swimming	Participating_in_sports&Exercise&Recreation	Sports, Exercise, and Recreation	Participating in Sports, Exercise, or Recreation	Participating in water sports	377	1	True	True	True	True	0.3558798625308554
video_on	action	3	meg	1	yk1EuWcM6ZQ	Playing squash	Participating_in_sports&Exercise&Recreation	Sports, Exercise, and Recreation	Participating in Sports, Exercise, or Recreation	Playing racquet sports	194	1	True	True	True	True	0.3005290238652378
video_on	action	3	meg	1	KglJgDMrjWk	Rollerblading	Participating_in_sports&Exercise&Recreation	Sports, Exercise, and Recreation	Participating in Sports, Exercise, or Recreation	Playing sports	359	1	True	True	True	True	0.357934678759193
video_on	action	3	meg	1	qwlghUdtPFg	Snow tubing	Participating_in_sports&Exercise&Recreation	Sports, Exercise, and Recreation	Participating in Sports, Exercise, or Recreation	Skiing, ice skating, snowboarding	372	1	True	True	False	False	0.4600518307415768
video_on	action	3	meg	1	nt9tMdFVQ1c	Playing beach volleyball	Participating_in_sports&Exercise&Recreation	Sports, Exercise, and Recreation	Participating in Sports, Exercise, or Recreation	Playing volleyball	341	1	True	True	True	True	0.333944012527354
video_on	action	3	meg	1	5_9M9aY2vb8	Kayaking	Participating_in_sports&Exercise&Recreation	Sports, Exercise, and Recreation	Participating in Sports, Exercise, or Recreation	Participating in water sports	254	1	True	True	True	True	0.3084862672549207
video_on	action	3	meg	1	FgLi_iVE-hE	Throwing darts	Relaxing&Leisure	Socializing, Relaxing, and Leisure	Relaxing and Leisure	Playing games	380	3	True	False	False	True	0.2934215391869657
video_on	action	3	meg	1	KevhFOdnzps	Playing water polo	Participating_in_sports&Exercise&Recreation	Sports, Exercise, and Recreation	Participating in Sports, Exercise, or Recreation	Participating in water sports	130	1	True	True	True	True	0.3107581266667694
video_on	action	3	meg	1	K3qXWXw05x4	Playing pool	Relaxing&Leisure	Socializing, Relaxing, and Leisure	Relaxing and Leisure	Playing games	348	3	True	False	False	True	0.4608970614790451
video_on	action	3	meg	1	vxLP8UEby18	Doing crunches	Participating_in_sports&Exercise&Recreation	Sports, Exercise, and Recreation	Participating in Sports, Exercise, or Recreation	Working out	305	1	True	True	False	False	0.4124405885813758
video_on	action	3	meg	1	5Cj6lXg88_k	Waxing skis	Appliances&Tools&Toys	Household Activities	Appliances, Tools, and Toys	Appliance, tool, and toy set-up, repair, & maintenance (by self)	387	10	True	False	False	True	0.2373108984902501
video_on	action	3	meg	1	zhtuDcnzgq4	Calf roping	Participating_in_sports&Exercise&Recreation	Sports, Exercise, and Recreation	Participating in Sports, Exercise, or Recreation	Participating in rodeo competitions	290	1	True	True	False	False	0.3646787142206449
video_on	action	3	meg	1	xQrZ3hwR3ig	Playing violin	Arts&Entertainment	Socializing, Relaxing, and Leisure	Arts and Entertainment	Playing musical instruments	234	2	True	False	False	True	0.0936337524908594
video_on	action	3	meg	1	YC2aUmTteZk	Snowboarding	Participating_in_sports&Exercise&Recreation	Sports, Exercise, and Recreation	Participating in Sports, Exercise, or Recreation	Skiing, ice skating, snowboarding	373	1	True	True	True	True	0.3491264691692777
video_on	action	3	meg	1	LPtKWeIEGZU	Playing guitarra	Arts&Entertainment	Socializing, Relaxing, and Leisure	Arts and Entertainment	Playing musical instruments	251	2	True	False	False	True	0.317249800398713
video_on	action	3	meg	1	SyUcbbhIleo	Building sandcastles	Arts&Entertainment	Socializing, Relaxing, and Leisure	Arts and Entertainment	Beach activities	286	2	True	False	False	True	0.3100291151786223
video_on	action	3	meg	1	v7vAYV7Y0ws	Playing accordion	Arts&Entertainment	Socializing, Relaxing, and Leisure	Arts and Entertainment	Playing musical instruments	267	2	True	False	False	True	0.2935522480984218
video_on	action	3	meg	1	DXoaxlbfdXs	Breakdancing	Arts&Entertainment	Socializing, Relaxing, and Leisure	Arts and Entertainment	Dancing	236	2	True	False	False	True	0.3738724094000645
video_on	action	3	meg	1	06yBwbm-V30	Playing badminton	Participating_in_sports&Exercise&Recreation	Sports, Exercise, and Recreation	Participating in Sports, Exercise, or Recreation	Playing racquet sports	268	1	True	True	True	True	0.4464725956495385
video_on	action	3	meg	1	GiKCcZV8j-s	Swinging at the playground	Arts&Entertainment	Socializing, Relaxing, and Leisure	Arts and Entertainment	Park activities	378	2	True	False	False	True	0.3746436824148986
video_on	action	3	meg	1	napxAANOqZ8	Drum corps	Arts&Entertainment	Socializing, Relaxing, and Leisure	Arts and Entertainment	Playing musical instruments	307	2	True	False	False	True	0.3740646993974224
video_on	action	3	meg	1	_qTeGISQuzY	Fixing the roof	Exterior_maintenance&Repair&Decoration	Household Activities	Exterior Maintenance, Repair, & Decoration	Exterior repair, improvements, & decoration	311	12	True	False	False	True	0.3502702474361285
video_on	action	3	meg	1	L3X9FYu-MEQ	Dodgeball	Participating_in_sports&Exercise&Recreation	Sports, Exercise, and Recreation	Participating in Sports, Exercise, or Recreation	Playing sports	161	1	True	True	True	True	0.0051202868926338
video_on	action	3	meg	1	vAqpUzC0Yz8	Triple jump	Participating_in_sports&Exercise&Recreation	Sports, Exercise, and Recreation	Participating in Sports, Exercise, or Recreation	Playing sports	155	1	True	True	False	False	0.3028072224988136
video_on	action	3	meg	1	rsCZAMIT39s	Doing kickboxing	Participating_in_sports&Exercise&Recreation	Sports, Exercise, and Recreation	Participating in Sports, Exercise, or Recreation	Participating in martial arts	70	1	True	True	True	True	0.3855441399209667
video_on	action	3	meg	1	gvOgCXLLr1U	Mowing the lawn	Lawn&Garden&Houseplants	Household Activities	Lawn, Garden, and Houseplants	Lawn, garden, and houseplant care	218	9	True	False	False	True	0.5275927074835636
video_on	action	3	meg	1	vUCXEdHyFKU	Hand car wash	Vehicles	Household Activities	Vehicles	Vehicle repair and maintenance (by self)	318	11	True	False	False	True	0.3032328565313946
video_on	action	3	meg	1	ScXgOoCrwaE	Zumba	Participating_in_sports&Exercise&Recreation	Sports, Exercise, and Recreation	Participating in Sports, Exercise, or Recreation	Doing aerobics	69	1	True	True	False	False	0.0053587627189699
video_on	action	3	meg	1	jSG6PmLqGBs	Wrapping presents	Household_management	Household Activities	Household Management	Household & personal organization and planning	179	13	True	False	False	True	0.3188478901574854
video_on	action	3	meg	1	qeP3tnPpI4o	Using the balance beam	Participating_in_sports&Exercise&Recreation	Sports, Exercise, and Recreation	Participating in Sports, Exercise, or Recreation	Doing gymnastics	180	1	True	True	True	True	0.3942599778820295
video_on	action	3	meg	1	xV42weK737A	Hula hoop	Relaxing&Leisure	Socializing, Relaxing, and Leisure	Relaxing and Leisure	Playing games	322	3	True	False	False	True	0.5922954202105757
video_on	action	3	meg	1	RuJK70EaGpk	Longboarding	Participating_in_sports&Exercise&Recreation	Sports, Exercise, and Recreation	Participating in Sports, Exercise, or Recreation	Playing sports	331	1	True	True	True	True	0.3199708395404741
video_on	action	3	meg	1	VIHEIDYscno	Vacuuming floor	Housework	Household Activities	Housework	Interior cleaning	160	6	False	False	False	True	0.0
video_on	action	3	eeg	1	ey5eAZXSGlA	Brushing hair	Grooming	Personal Care	Grooming	Washing, dressing and grooming oneself	125	4	False	False	False	True	0.0
video_on	action	3	eeg	1	rJA3bMPRfog	Playing violin	Arts&Entertainment	Socializing, Relaxing, and Leisure	Arts and Entertainment	Playing musical instruments	234	2	True	False	True	False	0.0050719999999273
video_on	action	3	eeg	1	_0VpzWRTQRE	Doing nails	Grooming	Personal Care	Grooming	Washing, dressing and grooming oneself	167	4	True	False	False	True	0.005069300001196
video_on	action	3	eeg	1	SnG0ptKKygc	Ice fishing	Participating_in_sports&Exercise&Recreation	Sports, Exercise, and Recreation	Participating in Sports, Exercise, or Recreation	Fishing	324	1	False	True	False	False	0.0
video_on	action	3	eeg	1	zmH5Qmf7ESQ	Grooming horse	Animals&Pets	Household Activities	Animals and Pets	Walking / exercising / playing with animals	95	8	True	False	False	True	0.6681554999995569
video_on	action	3	eeg	1	soqwhailTOQ	Cleaning windows	Housework	Household Activities	Housework	Interior cleaning	143	6	False	False	False	True	0.0
video_on	action	3	eeg	1	yBHxr_h2Zvc	Shoveling snow	Exterior_maintenance&Repair&Decoration	Household Activities	Exterior Maintenance, Repair, & Decoration	Exterior cleaning	183	12	True	False	False	True	0.0050752000024658
video_on	action	3	eeg	1	S1NCTfcz8vU	Rafting	Participating_in_sports&Exercise&Recreation	Sports, Exercise, and Recreation	Participating in Sports, Exercise, or Recreation	Boating	353	1	True	True	True	True	0.7195914999974775
video_on	action	3	eeg	1	5SCvr4doJhs	Rock climbing	Participating_in_sports&Exercise&Recreation	Sports, Exercise, and Recreation	Participating in Sports, Exercise, or Recreation	Climbing, spelunking, caving	188	1	True	True	True	True	0.8100933999994595
video_on	action	3	eeg	1	B4RsOFKtf38	Discus throw	Participating_in_sports&Exercise&Recreation	Sports, Exercise, and Recreation	Participating in Sports, Exercise, or Recreation	Playing sports	92	1	True	True	True	True	1.1180058999998437
video_on	action	3	eeg	1	Q5NlZ9c2n2s	Playing ice hockey	Participating_in_sports&Exercise&Recreation	Sports, Exercise, and Recreation	Participating in Sports, Exercise, or Recreation	Playing hockey	347	1	True	True	True	True	0.9004366000008304
video_on	action	3	eeg	1	5gja9T8eB5w	Sharpening knives	Appliances&Tools&Toys	Household Activities	Appliances, Tools, and Toys	Appliance, tool, and toy set-up, repair, & maintenance (by self)	365	10	False	False	False	True	0.0
video_on	action	3	eeg	1	rmsOFy7dHOs	Hurling	Participating_in_sports&Exercise&Recreation	Sports, Exercise, and Recreation	Participating in Sports, Exercise, or Recreation	Playing sports	323	1	True	True	False	False	0.0050843000026361
video_on	action	3	eeg	1	hzapbXwx_Sk	Cricket	Participating_in_sports&Exercise&Recreation	Sports, Exercise, and Recreation	Participating in Sports, Exercise, or Recreation	Playing sports	82	1	True	True	True	True	0.8001382000002195
video_on	action	3	eeg	1	P_VTTcU0r0o	Spinning	Participating_in_sports&Exercise&Recreation	Sports, Exercise, and Recreation	Participating in Sports, Exercise, or Recreation	Using cardiovascular equipment	117	1	True	True	True	True	0.5794281999988016
video_on	action	3	eeg	1	-8vO87hEfzo	Swimming	Participating_in_sports&Exercise&Recreation	Sports, Exercise, and Recreation	Participating in Sports, Exercise, or Recreation	Participating in water sports	377	1	True	True	False	False	0.6095538000008673
video_on	action	3	eeg	1	JabXI60uiMc	Waxing skis	Appliances&Tools&Toys	Household Activities	Appliances, Tools, and Toys	Appliance, tool, and toy set-up, repair, & maintenance (by self)	387	10	True	False	False	True	0.7641329999969457
video_on	action	3	eeg	1	LfCqAud_bbc	Fixing bicycle	Vehicles	Household Activities	Vehicles	Vehicle repair and maintenance (by self)	171	11	True	False	False	True	0.935185400001501
video_on	action	3	eeg	1	aSG3hncRvO4	BMX	Participating_in_sports&Exercise&Recreation	Sports, Exercise, and Recreation	Participating in Sports, Exercise, or Recreation	Biking	274	1	True	True	True	True	0.6872782000027655
video_on	action	3	eeg	1	ljzsnSFeYZI	Building sandcastles	Arts&Entertainment	Socializing, Relaxing, and Leisure	Arts and Entertainment	Beach activities	286	2	True	False	False	True	0.7207517000024382
video_on	action	3	eeg	1	EwXBYU6ml2w	Doing crunches	Participating_in_sports&Exercise&Recreation	Sports, Exercise, and Recreation	Participating in Sports, Exercise, or Recreation	Working out	305	1	True	True	True	True	0.9758303999988128
video_on	action	3	eeg	1	9F_4NqNvK98	Doing fencing	Participating_in_sports&Exercise&Recreation	Sports, Exercise, and Recreation	Participating in Sports, Exercise, or Recreation	Fencing	309	1	False	True	False	False	0.0
video_on	action	3	eeg	1	5lJkANw6Mpo	Windsurfing	Participating_in_sports&Exercise&Recreation	Sports, Exercise, and Recreation	Participating in Sports, Exercise, or Recreation	Participating in water sports	237	1	True	True	True	True	0.0050730000002658
video_on	action	3	eeg	1	qUyEvGBLfYQ	Canoeing	Participating_in_sports&Exercise&Recreation	Sports, Exercise, and Recreation	Participating in Sports, Exercise, or Recreation	Boating	292	1	True	True	True	True	0.8544413000017812
video_on	action	3	eeg	1	4IZSr2CZRp4	Ironing clothes	Housework	Household Activities	Housework	Laundry	83	6	True	False	False	True	0.6318819999978587
video_on	action	3	eeg	1	s3iI8jp3I3I	Snowboarding	Participating_in_sports&Exercise&Recreation	Sports, Exercise, and Recreation	Participating in Sports, Exercise, or Recreation	Skiing, ice skating, snowboarding	373	1	True	True	True	True	0.0050735000004351
video_on	action	3	eeg	1	8Hea05Flcbo	Hula hoop	Relaxing&Leisure	Socializing, Relaxing, and Leisure	Relaxing and Leisure	Playing games	322	3	True	False	False	True	0.7472478000017873
video_on	action	3	eeg	1	SKWPihJ20vY	Plataform diving	Participating_in_sports&Exercise&Recreation	Sports, Exercise, and Recreation	Participating in Sports, Exercise, or Recreation	Participating in water sports	233	1	True	True	True	True	0.8722772000000987
video_on	action	3	eeg	1	HK1EynE0auk	Getting a haircut	Grooming	Personal Care	Grooming	Washing, dressing and grooming	208	4	True	False	False	True	0.9764518000010868
video_on	action	3	eeg	1	VP5OHbiK5dk	Using uneven bars	Participating_in_sports&Exercise&Recreation	Sports, Exercise, and Recreation	Participating in Sports, Exercise, or Recreation	Doing gymnastics	192	1	True	True	True	True	0.9039505000000644
video_on	action	3	eeg	1	z4TABgNvouc	Futsal	Participating_in_sports&Exercise&Recreation	Sports, Exercise, and Recreation	Participating in Sports, Exercise, or Recreation	Playing soccer	315	1	True	True	True	True	0.8464835999984643
video_on	action	3	eeg	1	LSE6ZdQL0pU	Skiing	Participating_in_sports&Exercise&Recreation	Sports, Exercise, and Recreation	Participating in Sports, Exercise, or Recreation	Skiing, ice skating, snowboarding	369	1	True	True	True	True	0.9113923999975668
video_on	action	3	eeg	1	mPAxREtNWZc	Cheerleading	Arts&Entertainment	Socializing, Relaxing, and Leisure	Arts and Entertainment	Dancing	140	2	False	False	False	True	0.0
video_on	action	3	eeg	1	_AKnUhqWK58	Sumo	Participating_in_sports&Exercise&Recreation	Sports, Exercise, and Recreation	Participating in Sports, Exercise, or Recreation	Wrestling	375	1	True	True	True	True	0.0050719999999273
video_on	action	3	eeg	1	A7ruLeMt7YU	Paintball	Participating_in_sports&Exercise&Recreation	Sports, Exercise, and Recreation	Participating in Sports, Exercise, or Recreation	Playing sports	141	1	True	True	False	False	1.1360660000027565
video_on	action	3	eeg	1	h-BBFArAmUI	Waterskiing	Participating_in_sports&Exercise&Recreation	Sports, Exercise, and Recreation	Participating in Sports, Exercise, or Recreation	Participating in water sports	386	1	True	True	True	True	0.8055133999987447
video_on	action	3	eeg	1	lhRU-Q66i1k	Hitting a pinata	Relaxing&Leisure	Socializing, Relaxing, and Leisure	Relaxing and Leisure	Playing games	321	3	True	False	False	True	0.8324427000006835
video_on	action	3	eeg	1	o-cM5RxMCE0	Tai chi	Participating_in_sports&Exercise&Recreation	Sports, Exercise, and Recreation	Participating in Sports, Exercise, or Recreation	Participating in martial arts	263	1	True	True	False	False	0.9424579000005906
video_on	action	3	eeg	1	CHI66JgIEsk	Playing piano	Arts&Entertainment	Socializing, Relaxing, and Leisure	Arts and Entertainment	Playing musical instruments	197	2	True	False	False	True	0.8560178000006999
video_on	action	3	eeg	1	zx-ilpeDctg	Fun sliding down	Arts&Entertainment	Socializing, Relaxing, and Leisure	Arts and Entertainment	Park activities	313	2	True	False	False	True	0.8530267999994976
video_on	action	3	eeg	1	gPgzpqeA_O4	Doing step aerobics	Participating_in_sports&Exercise&Recreation	Sports, Exercise, and Recreation	Participating in Sports, Exercise, or Recreation	Doing aerobics	230	1	True	True	True	True	0.893340900001931
video_on	action	3	eeg	1	Ek3EC9lA6X0	Putting in contact lenses	Grooming	Personal Care	Grooming	Washing, dressing and grooming oneself	351	4	True	False	False	True	0.7595751000008022
video_on	action	3	eeg	1	JRPnyfx4Olg	Playing pool	Relaxing&Leisure	Socializing, Relaxing, and Leisure	Relaxing and Leisure	Playing games	348	3	True	False	False	True	0.97949460000018
video_on	action	3	eeg	1	dPacD8X0rks	Baking cookies	Food&Drink_prep.&Presentation&Clean-up	Eating and drinking Activities	Food & Drink Prep., Presentation, & Clean-up	Food and drink preparation	276	5	False	False	False	True	0.0
video_on	action	3	eeg	1	syzcSTxfwqY	Longboarding	Participating_in_sports&Exercise&Recreation	Sports, Exercise, and Recreation	Participating in Sports, Exercise, or Recreation	Playing sports	331	1	True	True	True	True	0.005068400001619
video_on	action	3	eeg	1	kQkL-wRWdMc	Snatch	Participating_in_sports&Exercise&Recreation	Sports, Exercise, and Recreation	Participating in Sports, Exercise, or Recreation	Weightlifting	79	1	True	True	True	True	0.7788245000010647
video_on	action	3	eeg	1	hc8cAFLl8t8	Ping-pong	Participating_in_sports&Exercise&Recreation	Sports, Exercise, and Recreation	Participating in Sports, Exercise, or Recreation	Playing racquet sports	119	1	True	True	True	True	0.7972215000008873
video_on	action	3	eeg	1	DD0VKjneTzk	Cleaning shoes	Housework	Household Activities	Housework	Sewing, repairing, & maintaining textiles	134	6	True	False	False	True	0.9432086999986496
video_on	action	3	eeg	1	LMN0hCWOqxQ	Playing field hockey	Participating_in_sports&Exercise&Recreation	Sports, Exercise, and Recreation	Participating in Sports, Exercise, or Recreation	Playing hockey	94	1	False	True	False	False	0.0
video_on	action	3	eeg	1	lQ_t47hW2Rg	Welding	Appliances&Tools&Toys	Household Activities	Appliances, Tools, and Toys	Appliance, tool, and toy set-up, repair, & maintenance (by self)	388	10	True	False	True	False	0.0050704999994195
video_on	action	3	eeg	1	xk60W8-ukFQ	Springboard diving	Participating_in_sports&Exercise&Recreation	Sports, Exercise, and Recreation	Participating in Sports, Exercise, or Recreation	Participating in water sports	193	1	True	True	True	True	0.9313895000013872
video_on	action	3	eeg	1	yEDUSkKxFJE	Playing polo	Participating_in_sports&Exercise&Recreation	Sports, Exercise, and Recreation	Participating in Sports, Exercise, or Recreation	Participating in equestrian sports	75	1	True	True	True	True	0.9811326000017287
video_on	action	3	eeg	1	dlBuUxhk3Jk	Scuba diving	Participating_in_sports&Exercise&Recreation	Sports, Exercise, and Recreation	Participating in Sports, Exercise, or Recreation	Participating in water sports	364	1	False	True	False	False	0.0
video_on	action	3	eeg	1	McJ4evEjE3s	Swinging at the playground	Arts&Entertainment	Socializing, Relaxing, and Leisure	Arts and Entertainment	Park activities	378	2	True	False	True	False	0.0050688999981503
video_on	action	3	eeg	1	vlszobevG-4	Playing guitarra	Arts&Entertainment	Socializing, Relaxing, and Leisure	Arts and Entertainment	Playing musical instruments	251	2	True	False	False	True	0.0050903000010293
video_on	action	3	eeg	1	eeP2Tt2qAH8	Knitting	Housework	Household Activities	Housework	Sewing, repairing, & maintaining textiles	329	6	True	False	False	True	0.9780066999992414
video_on	action	3	eeg	1	BRCPDJ9nFHM	Capoeira	Participating_in_sports&Exercise&Recreation	Sports, Exercise, and Recreation	Participating in Sports, Exercise, or Recreation	Participating in martial arts	294	1	True	True	False	False	0.7282688999985112
video_on	action	3	eeg	1	6te81UD1KAg	Shot put	Participating_in_sports&Exercise&Recreation	Sports, Exercise, and Recreation	Participating in Sports, Exercise, or Recreation	Playing sports	169	1	True	True	True	True	0.8552834000001894
video_on	action	3	eeg	1	XnN6Z-nS6OU	Washing hands	Grooming	Personal Care	Grooming	Washing, dressing and grooming oneself	173	4	True	False	False	True	0.8144529000019247
video_on	action	3	eeg	1	2sVVf2IDumw	Braiding hair	Grooming	Personal Care	Grooming	Washing, dressing and grooming oneself	285	4	True	False	False	True	0.8256246000019019
video_on	action	3	eeg	1	2vy0dMXhlWI	Chopping wood	Interior_maintenance&Repair&Decoration	Household Activities	Interior Maintenance, Repair, & Decoration	Heating and cooling	110	7	True	False	False	True	0.9181914000000688
video_on	action	3	eeg	1	HC2In-0OoeU	Raking leaves	Lawn&Garden&Houseplants	Household Activities	Lawn, Garden, and Houseplants	Lawn, garden, and houseplant care	354	9	True	False	False	True	0.8049532000004547
video_on	action	3	eeg	1	TwDxp_LNqWc	Wakeboarding	Participating_in_sports&Exercise&Recreation	Sports, Exercise, and Recreation	Participating in Sports, Exercise, or Recreation	Participating in water sports	385	1	False	True	False	False	0.0
video_on	action	3	eeg	1	IdK3oTsYaHw	Walking the dog	Animals&Pets	Household Activities	Animals and Pets	Walking / exercising / playing with animals	221	8	True	False	False	True	0.0050708999988273
video_on	action	3	eeg	1	zWoDOUE2X58	Hanging wallpaper	Interior_maintenance&Repair&Decoration	Household Activities	Interior Maintenance, Repair, & Decoration	Interior arrangement, decoration, & repairs	319	7	True	False	False	True	0.917234099997586
video_on	action	3	eeg	1	Sb7xdDg0_Uc	Archery	Participating_in_sports&Exercise&Recreation	Sports, Exercise, and Recreation	Participating in Sports, Exercise, or Recreation	Playing sports	250	1	True	True	True	True	0.7555680999976175
video_on	action	3	eeg	1	_rEtNuJyyjE	Zumba	Participating_in_sports&Exercise&Recreation	Sports, Exercise, and Recreation	Participating in Sports, Exercise, or Recreation	Doing aerobics	69	1	True	True	False	False	0.7249031999999715
video_on	action	3	eeg	1	Kkj69zLRCxg	Assembling bicycle	Vehicles	Household Activities	Vehicles	Vehicle repair and maintenance (by self)	273	11	True	False	False	True	0.978314500000124
video_on	action	3	eeg	1	qTcHd1L8ajk	Hammer throw	Participating_in_sports&Exercise&Recreation	Sports, Exercise, and Recreation	Participating in Sports, Exercise, or Recreation	Playing sports	224	1	True	True	True	True	0.7994618000011542
video_on	action	3	eeg	1	zGBHZs-ysJI	Brushing teeth	Grooming	Personal Care	Grooming	Washing, dressing and grooming oneself	148	4	True	False	False	True	0.6914471999989473
video_on	action	3	eeg	1	LfjPHV902qc	Arm wrestling	Participating_in_sports&Exercise&Recreation	Sports, Exercise, and Recreation	Participating in Sports, Exercise, or Recreation	Wrestling	271	1	True	True	False	False	0.6991069000032439
video_on	action	3	eeg	1	XDF4NIJyeh8	Kneeling	Participating_in_sports&Exercise&Recreation	Sports, Exercise, and Recreation	Participating in Sports, Exercise, or Recreation	Working out	328	1	True	True	True	True	0.7722195999995165
video_on	action	3	eeg	1	NZ5iioSnCO8	Shuffleboard	Relaxing&Leisure	Socializing, Relaxing, and Leisure	Relaxing and Leisure	Playing games	368	3	True	False	True	False	0.928518000000622
video_on	action	3	eeg	1	HfzQ6IhlvKU	Bathing dog	Animals&Pets	Household Activities	Animals and Pets	Care for animals and pets (not veterinary care)	90	8	True	False	False	True	0.7737991000030888
video_on	action	3	eeg	1	Ca0E6GeCmOw	Playing saxophone	Arts&Entertainment	Socializing, Relaxing, and Leisure	Arts and Entertainment	Playing musical instruments	109	2	True	False	False	True	0.7221434000020963
video_on	action	3	eeg	1	yq9fh6pi-co	Hand car wash	Vehicles	Household Activities	Vehicles	Vehicle repair and maintenance (by self)	318	11	True	False	False	True	0.7744820000007167
video_on	action	3	eeg	1	IEhTfm7Ytq8	Playing badminton	Participating_in_sports&Exercise&Recreation	Sports, Exercise, and Recreation	Participating in Sports, Exercise, or Recreation	Playing racquet sports	268	1	True	True	False	False	0.980430299998261
video_on	action	3	eeg	1	Y64zB0duM1c	Playing bagpipes	Arts&Entertainment	Socializing, Relaxing, and Leisure	Arts and Entertainment	Playing musical instruments	136	2	False	False	False	True	0.0
video_on	action	3	eeg	1	wozM9Es0st8	Using the rowing machine	Participating_in_sports&Exercise&Recreation	Sports, Exercise, and Recreation	Participating in Sports, Exercise, or Recreation	Using cardiovascular equipment	384	1	True	True	False	False	0.0050688999981503
video_on	action	3	eeg	1	eeS_Q93T7GU	Playing harmonica	Arts&Entertainment	Socializing, Relaxing, and Leisure	Arts and Entertainment	Playing musical instruments	100	2	True	False	False	True	0.7593922999985807
video_on	action	3	eeg	1	7ppEYcyWXdc	Painting	Interior_maintenance&Repair&Decoration	Household Activities	Interior Maintenance, Repair, & Decoration	Interior arrangement, decoration, & repairs	217	7	True	False	False	True	0.8065050000004703
video_on	action	3	eeg	1	yGDWkpOrXDs	Playing accordion	Arts&Entertainment	Socializing, Relaxing, and Leisure	Arts and Entertainment	Playing musical instruments	267	2	True	False	False	True	0.9235894999983428
video_on	action	3	eeg	1	4tVUI2lYBaI	Playing beach volleyball	Participating_in_sports&Exercise&Recreation	Sports, Exercise, and Recreation	Participating in Sports, Exercise, or Recreation	Playing volleyball	341	1	True	True	True	True	0.9194289000006391
video_on	action	3	eeg	1	oGok-GgzMI0	Baton twirling	Participating_in_sports&Exercise&Recreation	Sports, Exercise, and Recreation	Participating in Sports, Exercise, or Recreation	Playing sports	277	1	True	True	True	True	0.941776600000594
video_on	action	3	eeg	1	KP4lP7CS8YQ	Using the balance beam	Participating_in_sports&Exercise&Recreation	Sports, Exercise, and Recreation	Participating in Sports, Exercise, or Recreation	Doing gymnastics	180	1	True	True	True	True	0.8716698999996879
video_on	action	3	eeg	1	-LSOghPdeYM	Clean and jerk	Participating_in_sports&Exercise&Recreation	Sports, Exercise, and Recreation	Participating in Sports, Exercise, or Recreation	Weightlifting	84	1	False	True	False	False	0.0
video_on	action	3	eeg	1	E1eQ3yDeRU0	Horseback riding	Participating_in_sports&Exercise&Recreation	Sports, Exercise, and Recreation	Participating in Sports, Exercise, or Recreation	Participating in equestrian sports	175	1	True	True	True	True	0.0050729999966279
video_on	action	3	eeg	1	b4tiAd1oKM4	Preparing pasta	Food&Drink_prep.&Presentation&Clean-up	Eating and drinking Activities	Food & Drink Prep., Presentation, & Clean-up	Food and drink preparation	186	5	True	False	False	True	0.9162502999970455
video_on	action	3	eeg	1	eqjPCLgjLUk	Polishing shoes	Housework	Household Activities	Housework	Sewing, repairing, & maintaining textiles	227	6	True	False	False	True	0.9029267999976582
video_on	action	3	eeg	1	geRHsGQL2Hc	Shaving	Grooming	Personal Care	Grooming	Washing, dressing and grooming oneself	190	4	False	False	False	True	0.0
video_on	action	3	meg	2	qx5EzBfRz2g	Ping-pong	Participating_in_sports&Exercise&Recreation	Sports, Exercise, and Recreation	Participating in Sports, Exercise, or Recreation	Playing racquet sports	119	1	True	True	True	True	0.4593478743045125
video_on	action	3	meg	2	jJbeUPYJBCc	Baking cookies	Food&Drink_prep.&Presentation&Clean-up	Eating and drinking Activities	Food & Drink Prep., Presentation, & Clean-up	Food and drink preparation	276	5	True	False	False	True	0.3881993718096055
video_on	action	3	meg	2	YyaP5Heqnvw	Baton twirling	Participating_in_sports&Exercise&Recreation	Sports, Exercise, and Recreation	Participating in Sports, Exercise, or Recreation	Playing sports	277	1	True	True	True	True	0.3163451016880572
video_on	action	3	meg	2	ze96ISMA2Sg	Getting a piercing	Grooming	Personal Care	Grooming	Washing, dressing and grooming	214	4	True	False	False	True	0.3484991872101091
video_on	action	3	meg	2	W4CGORYiU4Q	Using the rowing machine	Participating_in_sports&Exercise&Recreation	Sports, Exercise, and Recreation	Participating in Sports, Exercise, or Recreation	Using cardiovascular equipment	384	1	True	True	True	True	0.0984084004012402
video_on	action	3	meg	2	Ok1GR8lXjkk	Scuba diving	Participating_in_sports&Exercise&Recreation	Sports, Exercise, and Recreation	Participating in Sports, Exercise, or Recreation	Participating in water sports	364	1	True	True	True	True	0.3190054653387051
video_on	action	3	meg	2	zBS8mIdyVo8	Canoeing	Participating_in_sports&Exercise&Recreation	Sports, Exercise, and Recreation	Participating in Sports, Exercise, or Recreation	Boating	292	1	True	True	False	False	0.3010077866783831
video_on	action	3	meg	2	JACIAA5brJM	Shaving	Grooming	Personal Care	Grooming	Washing, dressing and grooming oneself	190	4	True	False	False	True	0.5810991319885943
video_on	action	3	meg	2	mMShtaDPI1g	Sharpening knives	Appliances&Tools&Toys	Household Activities	Appliances, Tools, and Toys	Appliance, tool, and toy set-up, repair, & maintenance (by self)	365	10	True	False	False	True	0.0050967411953024
video_on	action	3	meg	2	wtroPBg96Yo	Shot put	Participating_in_sports&Exercise&Recreation	Sports, Exercise, and Recreation	Participating in Sports, Exercise, or Recreation	Playing sports	169	1	True	True	True	True	0.342694565304555
video_on	action	3	meg	2	OJqhnMx3PDI	Raking leaves	Lawn&Garden&Houseplants	Household Activities	Lawn, Garden, and Houseplants	Lawn, garden, and houseplant care	354	9	True	False	False	True	0.3494808623217977
video_on	action	3	meg	2	zuOR04XnIL8	Assembling bicycle	Vehicles	Household Activities	Vehicles	Vehicle repair and maintenance (by self)	273	11	True	False	False	True	0.316903557657497
video_on	action	3	meg	2	0Hj3GgHZ_x0	Long jump	Participating_in_sports&Exercise&Recreation	Sports, Exercise, and Recreation	Participating in Sports, Exercise, or Recreation	Playing sports	80	1	True	True	True	True	0.3179386634437833
video_on	action	3	meg	2	5gzmuC5-yyI	Spread mulch	Lawn&Garden&Houseplants	Household Activities	Lawn, Garden, and Houseplants	Lawn, garden, and houseplant care	374	9	True	False	False	True	0.6373872711264994
video_on	action	3	meg	2	y9JEIyxhnWM	BMX	Participating_in_sports&Exercise&Recreation	Sports, Exercise, and Recreation	Participating in Sports, Exercise, or Recreation	Biking	274	1	True	True	True	True	0.3274339248600881
video_on	action	3	meg	2	lKgdR3DkAPs	Rope skipping	Participating_in_sports&Exercise&Recreation	Sports, Exercise, and Recreation	Participating in Sports, Exercise, or Recreation	Working out	361	1	True	True	True	True	0.0051006654684897
video_on	action	3	meg	2	liTJIMTckO8	Powerbocking	Participating_in_sports&Exercise&Recreation	Sports, Exercise, and Recreation	Participating in Sports, Exercise, or Recreation	Playing sports	350	1	True	True	True	True	0.3340064992371481
video_on	action	3	meg	2	gjM-mG2taNs	Brushing hair	Grooming	Personal Care	Grooming	Washing, dressing and grooming oneself	125	4	True	False	False	True	0.3186719010700471
video_on	action	3	meg	2	P-Ck3hp8jAg	Tug of war	Relaxing&Leisure	Socializing, Relaxing, and Leisure	Relaxing and Leisure	Playing games	382	3	True	False	True	False	0.2728703581960872
video_on	action	3	meg	2	1OYuj7F3nfo	Clean and jerk	Participating_in_sports&Exercise&Recreation	Sports, Exercise, and Recreation	Participating in Sports, Exercise, or Recreation	Weightlifting	84	1	True	True	True	True	0.2970850105921272
video_on	action	3	meg	2	1G4IwA6P8Gc	Bungee jumping	Participating_in_sports&Exercise&Recreation	Sports, Exercise, and Recreation	Participating in Sports, Exercise, or Recreation	Playing sports	154	1	True	True	True	True	0.3252637950063217
video_on	action	3	meg	2	IzFtbr9lQps	Washing hands	Grooming	Personal Care	Grooming	Washing, dressing and grooming oneself	173	4	True	False	False	True	0.6140133214357775
video_on	action	3	meg	2	5SDKQXmbmoQ	Camel ride	Participating_in_sports&Exercise&Recreation	Sports, Exercise, and Recreation	Participating in Sports, Exercise, or Recreation	Playing sports	291	1	True	True	False	False	0.3994880316895433
video_on	action	3	meg	2	wPyjvZdPp-E	Playing racquetball	Participating_in_sports&Exercise&Recreation	Sports, Exercise, and Recreation	Participating in Sports, Exercise, or Recreation	Playing racquet sports	253	1	True	True	True	True	0.3756398472178262
video_on	action	3	meg	2	Dyyi5Opea4U	Walking the dog	Animals&Pets	Household Activities	Animals and Pets	Walking / exercising / playing with animals	221	8	True	False	False	True	0.3111182553402614
video_on	action	3	meg	2	9wRKHge2j_o	Snatch	Participating_in_sports&Exercise&Recreation	Sports, Exercise, and Recreation	Participating in Sports, Exercise, or Recreation	Weightlifting	79	1	True	True	True	True	0.4800493856309913
video_on	action	3	meg	2	myF1389eK5c	Kneeling	Participating_in_sports&Exercise&Recreation	Sports, Exercise, and Recreation	Participating in Sports, Exercise, or Recreation	Working out	328	1	True	True	False	False	0.6081522502063308
video_on	action	3	meg	2	3TtoHzdWzE4	Playing rubik cube	Relaxing&Leisure	Socializing, Relaxing, and Leisure	Relaxing and Leisure	Playing games	349	3	True	False	False	True	0.3836423708125949
video_on	action	3	meg	2	WpTCiYC9n-Q	Plastering	Interior_maintenance&Repair&Decoration	Household Activities	Interior Maintenance, Repair, & Decoration	Interior arrangement, decoration, & repairs	340	7	True	False	False	True	0.5198141699947882
video_on	action	3	meg	2	z7mGEYIF_5g	Doing fencing	Participating_in_sports&Exercise&Recreation	Sports, Exercise, and Recreation	Participating in Sports, Exercise, or Recreation	Fencing	309	1	True	True	False	False	0.2666917217138689
video_on	action	3	meg	2	l6OFzqhBSt8	Getting a tattoo	Grooming	Personal Care	Grooming	Washing, dressing and grooming	187	4	True	False	False	True	0.6161786213924643
video_on	action	3	meg	2	mLnaL1X2ydM	Cheerleading	Arts&Entertainment	Socializing, Relaxing, and Leisure	Arts and Entertainment	Dancing	140	2	True	False	False	True	0.3923410022980533
video_on	action	3	meg	2	UJuhbUKkjTk	Grooming dog	Animals&Pets	Household Activities	Animals and Pets	Care for animals and pets (not veterinary care)	317	8	True	False	False	True	0.3764277229493018
video_on	action	3	meg	2	O2y2P-iZYfI	Hand washing clothes	Housework	Household Activities	Housework	Laundry	232	6	True	False	False	True	0.5284273728029802
video_on	action	3	meg	2	Q0kPmIJ5UvA	Wakeboarding	Participating_in_sports&Exercise&Recreation	Sports, Exercise, and Recreation	Participating in Sports, Exercise, or Recreation	Participating in water sports	385	1	True	True	True	True	0.4647999142762273
video_on	action	3	meg	2	xh2c6FxxDWM	Braiding hair	Grooming	Personal Care	Grooming	Washing, dressing and grooming oneself	285	4	True	False	False	True	0.3129593489284161
video_on	action	3	meg	2	u1HThrwoA4A	Waterskiing	Participating_in_sports&Exercise&Recreation	Sports, Exercise, and Recreation	Participating in Sports, Exercise, or Recreation	Participating in water sports	386	1	True	True	False	False	0.4637430740112904
video_on	action	3	meg	2	WvYPLAosbf8	Playing polo	Participating_in_sports&Exercise&Recreation	Sports, Exercise, and Recreation	Participating in Sports, Exercise, or Recreation	Participating in equestrian sports	75	1	True	True	False	False	0.3618179101322312
video_on	action	3	meg	2	yEzC0hefRnc	Using the pommel horse	Participating_in_sports&Exercise&Recreation	Sports, Exercise, and Recreation	Participating in Sports, Exercise, or Recreation	Doing gymnastics	114	1	True	True	True	True	0.3379268603748642
video_on	action	3	meg	2	Ovq3S65vFCw	Using parallel bars	Participating_in_sports&Exercise&Recreation	Sports, Exercise, and Recreation	Participating in Sports, Exercise, or Recreation	Doing gymnastics	88	1	True	True	True	True	0.3163457054179162
video_on	action	3	meg	2	4SEAc191TuQ	Making a cake	Food&Drink_prep.&Presentation&Clean-up	Eating and drinking Activities	Food & Drink Prep., Presentation, & Clean-up	Food and drink preparation	332	5	True	False	False	True	0.3697008939634543
video_on	action	3	meg	2	mpdp5hwLTH0	Starting a campfire	Participating_in_sports&Exercise&Recreation	Sports, Exercise, and Recreation	Participating in Sports, Exercise, or Recreation	Playing sports	153	1	True	True	False	False	0.3526000655256212
video_on	action	3	meg	2	ZrLPMYK1sAQ	Tai chi	Participating_in_sports&Exercise&Recreation	Sports, Exercise, and Recreation	Participating in Sports, Exercise, or Recreation	Participating in martial arts	263	1	True	True	False	False	0.36200959639973
video_on	action	3	meg	2	4x8OLB_A0jU	Playing flauta	Arts&Entertainment	Socializing, Relaxing, and Leisure	Arts and Entertainment	Playing musical instruments	149	2	True	False	False	True	0.3308737119659781
video_on	action	3	meg	2	7pbBn3IS7lI	Running a marathon	Participating_in_sports&Exercise&Recreation	Sports, Exercise, and Recreation	Participating in Sports, Exercise, or Recreation	Running	362	1	True	True	True	True	0.3324207860277965
video_on	action	3	meg	2	ZjNENAGODy8	Ice fishing	Participating_in_sports&Exercise&Recreation	Sports, Exercise, and Recreation	Participating in Sports, Exercise, or Recreation	Fishing	324	1	True	True	False	False	0.3052556747279595
video_on	action	3	meg	2	dnFYMTbyX7Q	Capoeira	Participating_in_sports&Exercise&Recreation	Sports, Exercise, and Recreation	Participating in Sports, Exercise, or Recreation	Participating in martial arts	294	1	True	True	True	True	0.339353790943278
video_on	action	3	meg	2	_TLpjYGtKe8	Skiing	Participating_in_sports&Exercise&Recreation	Sports, Exercise, and Recreation	Participating in Sports, Exercise, or Recreation	Skiing, ice skating, snowboarding	369	1	True	True	True	True	0.3147883678029757
video_on	action	3	meg	2	sg0nYhUB7CA	Making an omelette	Food&Drink_prep.&Presentation&Clean-up	Eating and drinking Activities	Food & Drink Prep., Presentation, & Clean-up	Food and drink preparation	334	5	True	False	False	True	0.4431360474263783
video_on	action	3	meg	2	7SvO-2BAy3M	Using the monkey bar	Arts&Entertainment	Socializing, Relaxing, and Leisure	Arts and Entertainment	Park activities	383	2	True	False	True	False	0.4591030592855531
video_on	action	3	meg	2	Ff6olNZv1xE	Playing kickball	Participating_in_sports&Exercise&Recreation	Sports, Exercise, and Recreation	Participating in Sports, Exercise, or Recreation	Playing sports	257	1	True	True	False	False	0.1799930872221011
video_on	action	3	meg	2	L6KMIbJFVmM	Preparing salad	Food&Drink_prep.&Presentation&Clean-up	Eating and drinking Activities	Food & Drink Prep., Presentation, & Clean-up	Food and drink preparation	96	5	True	False	False	True	0.3954605073377024
video_on	action	3	meg	2	jcyC3EBdGS0	Painting furniture	Interior_maintenance&Repair&Decoration	Household Activities	Interior Maintenance, Repair, & Decoration	Building and repairing furniture	337	7	True	False	False	True	0.3642597212747205
video_on	action	3	meg	2	hzzPjnQYI4w	Table soccer	Relaxing&Leisure	Socializing, Relaxing, and Leisure	Relaxing and Leisure	Playing games	379	3	True	False	False	True	0.2198097929067444
video_on	action	3	meg	2	iDZzA5JtL7Y	Painting fence	Exterior_maintenance&Repair&Decoration	Household Activities	Exterior Maintenance, Repair, & Decoration	Painting fence	336	12	True	False	False	True	0.4061825607786886
video_on	action	3	meg	2	VIEiuE97VKQ	Doing motocross	Participating_in_sports&Exercise&Recreation	Sports, Exercise, and Recreation	Participating in Sports, Exercise, or Recreation	Playing sports	243	1	True	True	True	True	0.3868101747648325
video_on	action	3	meg	2	K-IohhhSiIM	Hurling	Participating_in_sports&Exercise&Recreation	Sports, Exercise, and Recreation	Participating in Sports, Exercise, or Recreation	Playing sports	323	1	True	True	True	True	0.4711171082162764
video_on	action	3	meg	2	JWD4tZhK0RA	Beach soccer	Participating_in_sports&Exercise&Recreation	Sports, Exercise, and Recreation	Participating in Sports, Exercise, or Recreation	Playing soccer	278	1	True	True	False	False	0.8110728241736069
video_on	action	3	meg	2	La07B-Blf-E	Grooming horse	Animals&Pets	Household Activities	Animals and Pets	Walking / exercising / playing with animals	95	8	True	False	False	True	0.0051320597704034
video_on	action	3	meg	2	ALkRUlZDknE	Playing drums	Arts&Entertainment	Socializing, Relaxing, and Leisure	Arts and Entertainment	Playing musical instruments	346	2	True	False	False	True	0.3493290226615499
video_on	action	3	meg	2	ZaKqQLx3LZQ	Skateboarding	Participating_in_sports&Exercise&Recreation	Sports, Exercise, and Recreation	Participating in Sports, Exercise, or Recreation	Playing sports	176	1	True	True	True	True	0.3889588719757739
video_on	action	3	meg	2	xmCjEso1J4A	Mixing drinks	Food&Drink_prep.&Presentation&Clean-up	Eating and drinking Activities	Food & Drink Prep., Presentation, & Clean-up	Food and drink preparation	244	5	True	False	False	True	0.5257824044092558
video_on	action	3	meg	2	3cGk6rSMj4A	Smoking a cigarette	Relaxing&Leisure	Socializing, Relaxing, and Leisure	Relaxing and Leisure	Tobacco and drug use	201	3	True	False	False	True	0.5011970580089837
video_on	action	3	meg	2	qCpRhUkERig	Decorating the Christmas tree	Interior_maintenance&Repair&Decoration	Household Activities	Interior Maintenance, Repair, & Decoration	Interior arrangement, decoration, & repairs	302	7	True	False	False	True	0.4395564953738358
video_on	action	3	meg	2	VmPsAmWvwD8	Cleaning sink	Interior_maintenance&Repair&Decoration	Household Activities	Interior Maintenance, Repair, & Decoration	Interior arrangement, decoration, & repairs	297	7	True	False	False	True	0.5810197406681255
video_on	action	3	meg	2	_dsjR9HNxaU	Rock-paper-scissors	Relaxing&Leisure	Socializing, Relaxing, and Leisure	Relaxing and Leisure	Playing games	358	3	True	False	False	True	0.3277880161476787
video_on	action	3	meg	2	GsljJM7Ie0s	Playing harmonica	Arts&Entertainment	Socializing, Relaxing, and Leisure	Arts and Entertainment	Playing musical instruments	100	2	True	False	False	True	0.3657817402854562
video_on	action	3	meg	2	W_scepAxfPA	Plataform diving	Participating_in_sports&Exercise&Recreation	Sports, Exercise, and Recreation	Participating in Sports, Exercise, or Recreation	Participating in water sports	233	1	True	True	True	True	0.5842116940766573
video_on	action	3	meg	2	5jgLoWYZw2E	Hopscotch	Relaxing&Leisure	Socializing, Relaxing, and Leisure	Relaxing and Leisure	Playing games	241	3	True	False	False	True	0.3421137710683979
video_on	action	3	meg	2	QWYNuhJZ30s	Ironing clothes	Housework	Household Activities	Housework	Laundry	83	6	True	False	False	True	0.5364383487321902
video_on	action	3	meg	2	n5hxuaGkyh8	Tumbling	Participating_in_sports&Exercise&Recreation	Sports, Exercise, and Recreation	Participating in Sports, Exercise, or Recreation	Doing gymnastics	258	1	True	True	True	True	0.0050964393303729
video_on	action	3	meg	2	m8_QjEkaRnI	Chopping wood	Interior_maintenance&Repair&Decoration	Household Activities	Interior Maintenance, Repair, & Decoration	Heating and cooling	110	7	True	False	False	True	0.5659450509410817
video_on	action	3	meg	2	i9Te_kkM3B0	Hammer throw	Participating_in_sports&Exercise&Recreation	Sports, Exercise, and Recreation	Participating in Sports, Exercise, or Recreation	Playing sports	224	1	True	True	True	True	0.382861136138672
video_on	action	3	meg	2	NlmsPwRLJvk	Futsal	Participating_in_sports&Exercise&Recreation	Sports, Exercise, and Recreation	Participating in Sports, Exercise, or Recreation	Playing soccer	315	1	True	True	True	True	0.4782852683856617
video_on	action	3	meg	2	rShnw667QPg	Sailing	Participating_in_sports&Exercise&Recreation	Sports, Exercise, and Recreation	Participating in Sports, Exercise, or Recreation	Participating in water sports	240	1	True	True	False	False	0.3817544876656029
video_on	action	3	meg	2	6bT3BCOn6tM	Welding	Appliances&Tools&Toys	Household Activities	Appliances, Tools, and Toys	Appliance, tool, and toy set-up, repair, & maintenance (by self)	388	10	True	False	False	True	0.3833305410516914
video_on	action	3	meg	2	quqZSeai8xE	Playing lacrosse	Participating_in_sports&Exercise&Recreation	Sports, Exercise, and Recreation	Participating in Sports, Exercise, or Recreation	Playing racquet sports	209	1	True	True	True	True	0.3856205125339329
video_on	action	3	meg	2	sDQ0zcTP0mQ	Playing field hockey	Participating_in_sports&Exercise&Recreation	Sports, Exercise, and Recreation	Participating in Sports, Exercise, or Recreation	Playing hockey	94	1	True	True	True	True	0.3834168753237463
video_on	action	3	meg	2	hPqA5xkt9Tw	Rock climbing	Participating_in_sports&Exercise&Recreation	Sports, Exercise, and Recreation	Participating in Sports, Exercise, or Recreation	Climbing, spelunking, caving	188	1	True	True	True	True	0.3859634347027167
video_on	action	3	meg	2	VtTAH9-mPkM	Getting a haircut	Grooming	Personal Care	Grooming	Washing, dressing and grooming	208	4	True	False	False	True	0.3118865096475929
video_on	action	3	meg	2	f9m5JUYZgHU	Riding bumper cars	Relaxing&Leisure	Socializing, Relaxing, and Leisure	Relaxing and Leisure	Playing games	356	3	True	False	False	True	0.0050973449251614
video_on	action	3	meg	2	oHuNKH7d-xk	Playing congas	Arts&Entertainment	Socializing, Relaxing, and Leisure	Arts and Entertainment	Playing musical instruments	345	2	True	False	False	True	0.0053376319410745
video_on	action	3	meg	2	9DA_bFiWY6s	Playing piano	Arts&Entertainment	Socializing, Relaxing, and Leisure	Arts and Entertainment	Playing musical instruments	197	2	True	False	False	True	0.5683168287214357
video_on	action	3	meg	2	nqDwFalPlUE	Cutting the grass	Lawn&Garden&Houseplants	Household Activities	Lawn, Garden, and Houseplants	Lawn, garden, and houseplant care	301	9	True	False	False	True	0.3118931507633533
video_on	action	3	meg	2	D4HriwkHErc	Kite flying	Relaxing&Leisure	Socializing, Relaxing, and Leisure	Relaxing and Leisure	Playing games	327	3	True	False	False	True	0.0966678288532421
video_on	action	3	meg	2	uFJKwGe2lzQ	Mooping floor	Housework	Household Activities	Housework	Interior cleaning	335	6	True	False	False	True	0.3206482316018082
video_on	action	3	meg	2	5xycY0Idkxs	Cleaning shoes	Housework	Household Activities	Housework	Sewing, repairing, & maintaining textiles	134	6	True	False	False	True	0.3610922192165162
video_on	action	3	meg	2	FsEcB8InopE	Cleaning windows	Housework	Household Activities	Housework	Interior cleaning	143	6	True	False	False	True	0.4007090881932527
video_on	action	3	meg	2	_qxcXeVyUxk	Slacklining	Relaxing&Leisure	Socializing, Relaxing, and Leisure	Relaxing and Leisure	Playing games	371	3	True	False	True	False	0.20876353312633
video_on	action	3	meg	2	AhBzxVYIXDo	Volleyball	Participating_in_sports&Exercise&Recreation	Sports, Exercise, and Recreation	Participating in Sports, Exercise, or Recreation	Playing volleyball	123	1	False	True	False	False	0.0
video_on	action	3	eeg	2	8z7gU31hbcM	Camel ride	Participating_in_sports&Exercise&Recreation	Sports, Exercise, and Recreation	Participating in Sports, Exercise, or Recreation	Playing sports	291	1	True	True	False	False	0.7699389000008523
video_on	action	3	eeg	2	0nUhy1dV-uA	Putting on shoes	Grooming	Personal Care	Grooming	Washing, dressing and grooming oneself	352	4	True	False	False	True	0.949115499999607
video_on	action	3	eeg	2	Cwlwwa1SPNI	Dodgeball	Participating_in_sports&Exercise&Recreation	Sports, Exercise, and Recreation	Participating in Sports, Exercise, or Recreation	Playing sports	161	1	True	True	True	True	0.9537431999997352
video_on	action	3	eeg	2	sihNLID-aAk	Playing rubik cube	Relaxing&Leisure	Socializing, Relaxing, and Leisure	Relaxing and Leisure	Playing games	349	3	True	False	False	True	0.9689916999996058
video_on	action	3	eeg	2	ah9U8lRWtzw	Long jump	Participating_in_sports&Exercise&Recreation	Sports, Exercise, and Recreation	Participating in Sports, Exercise, or Recreation	Playing sports	80	1	True	True	True	True	0.7176624999992782
video_on	action	3	eeg	2	CuJuNTxp0d8	Making a lemonade	Food&Drink_prep.&Presentation&Clean-up	Eating and drinking Activities	Food & Drink Prep., Presentation, & Clean-up	Food and drink preparation	333	5	True	False	False	True	0.9758795999987342
video_on	action	3	eeg	2	tKFfUgDWJQw	Breakdancing	Arts&Entertainment	Socializing, Relaxing, and Leisure	Arts and Entertainment	Dancing	236	2	True	False	True	False	0.8504600000014761
video_on	action	3	eeg	2	CZf2Ht-6uCI	Mowing the lawn	Lawn&Garden&Houseplants	Household Activities	Lawn, Garden, and Houseplants	Lawn, garden, and houseplant care	218	9	True	False	True	False	0.9752767999998468
video_on	action	3	eeg	2	qhXnVI6Qsu8	Javelin throw	Participating_in_sports&Exercise&Recreation	Sports, Exercise, and Recreation	Participating in Sports, Exercise, or Recreation	Playing sports	116	1	True	True	True	True	0.9520379999994476
video_on	action	3	eeg	2	bt2y1FUEAnA	Belly dance	Arts&Entertainment	Socializing, Relaxing, and Leisure	Arts and Entertainment	Dancing	247	2	True	False	True	False	1.201741299999412
video_on	action	3	eeg	2	10cBuLO_mFA	Plastering	Interior_maintenance&Repair&Decoration	Household Activities	Interior Maintenance, Repair, & Decoration	Interior arrangement, decoration, & repairs	340	7	True	False	False	True	0.8382347999977355
video_on	action	3	eeg	2	FkB1O7UgcDc	Playing lacrosse	Participating_in_sports&Exercise&Recreation	Sports, Exercise, and Recreation	Participating in Sports, Exercise, or Recreation	Playing racquet sports	209	1	True	True	False	False	0.8866019999986747
video_on	action	3	eeg	2	ilK3DZZKbEo	Doing motocross	Participating_in_sports&Exercise&Recreation	Sports, Exercise, and Recreation	Participating in Sports, Exercise, or Recreation	Playing sports	243	1	True	True	True	True	0.7589649000001373
video_on	action	3	eeg	2	Ut1NSjtam-k	Trimming branches or hedges	Lawn&Garden&Houseplants	Household Activities	Lawn, Garden, and Houseplants	Lawn, garden, and houseplant care	381	9	True	False	False	True	0.9486075999993772
video_on	action	3	eeg	2	cK3mQbWfyM8	Pole vault	Participating_in_sports&Exercise&Recreation	Sports, Exercise, and Recreation	Participating in Sports, Exercise, or Recreation	Playing sports	106	1	True	True	True	True	1.165804099997331
video_on	action	3	eeg	2	tS9pwvBoQMw	Painting fence	Exterior_maintenance&Repair&Decoration	Household Activities	Exterior Maintenance, Repair, & Decoration	Painting fence	336	12	True	False	False	True	0.7994973999993817
video_on	action	3	eeg	2	32uRcTZFD1g	Triple jump	Participating_in_sports&Exercise&Recreation	Sports, Exercise, and Recreation	Participating in Sports, Exercise, or Recreation	Playing sports	155	1	True	True	True	True	0.7503257999997004
video_on	action	3	eeg	2	O8rBafJXa2M	Rollerblading	Participating_in_sports&Exercise&Recreation	Sports, Exercise, and Recreation	Participating in Sports, Exercise, or Recreation	Playing sports	359	1	False	True	False	False	0.0
video_on	action	3	eeg	2	jOiPb15D-IQ	Playing racquetball	Participating_in_sports&Exercise&Recreation	Sports, Exercise, and Recreation	Participating in Sports, Exercise, or Recreation	Playing racquet sports	253	1	True	True	True	True	0.0050692000004346
video_on	action	3	eeg	2	3GpDZcYe_Ow	Rope skipping	Participating_in_sports&Exercise&Recreation	Sports, Exercise, and Recreation	Participating in Sports, Exercise, or Recreation	Working out	361	1	True	True	True	True	1.2075617000009515
video_on	action	3	eeg	2	nhpfbfQihhQ	Washing dishes	Food&Drink_prep.&Presentation&Clean-up	Eating and drinking Activities	Food & Drink Prep., Presentation, & Clean-up	Kitchen and food clean-up	213	5	True	False	False	True	0.973130599999422
video_on	action	3	eeg	2	qdt9p2CJaGk	Playing blackjack	Arts&Entertainment	Socializing, Relaxing, and Leisure	Arts and Entertainment	Attending gambling establishments	343	2	False	False	False	True	0.0
video_on	action	3	eeg	2	vXyQHrIko0c	Sailing	Participating_in_sports&Exercise&Recreation	Sports, Exercise, and Recreation	Participating in Sports, Exercise, or Recreation	Participating in water sports	240	1	True	True	False	False	0.0050711000003502
video_on	action	3	eeg	2	hJ9duZfzqxg	Tango	Arts&Entertainment	Socializing, Relaxing, and Leisure	Arts and Entertainment	Dancing	73	2	True	False	False	True	0.9022163000008732
video_on	action	3	eeg	2	tYkO9HZHtDk	Grooming dog	Animals&Pets	Household Activities	Animals and Pets	Care for animals and pets (not veterinary care)	317	8	True	False	True	False	1.623441299998376
video_on	action	3	eeg	2	VFvik_THcNQ	Mixing drinks	Food&Drink_prep.&Presentation&Clean-up	Eating and drinking Activities	Food & Drink Prep., Presentation, & Clean-up	Food and drink preparation	244	5	False	False	False	True	0.0
video_on	action	3	eeg	2	cKRxJTMM7kk	Using parallel bars	Participating_in_sports&Exercise&Recreation	Sports, Exercise, and Recreation	Participating in Sports, Exercise, or Recreation	Doing gymnastics	88	1	True	True	False	False	0.0051207000033173
video_on	action	3	eeg	2	5DXU5e-CWhw	Beach soccer	Participating_in_sports&Exercise&Recreation	Sports, Exercise, and Recreation	Participating in Sports, Exercise, or Recreation	Playing soccer	278	1	True	True	True	True	0.8516495000003488
video_on	action	3	eeg	2	sSKnAwZazLU	Decorating the Christmas tree	Interior_maintenance&Repair&Decoration	Household Activities	Interior Maintenance, Repair, & Decoration	Interior arrangement, decoration, & repairs	302	7	True	False	False	True	0.8758335999991687
video_on	action	3	eeg	2	HtihmSvoD_I	Bullfighting	Participating_in_sports&Exercise&Recreation	Sports, Exercise, and Recreation	Participating in Sports, Exercise, or Recreation	Participating in rodeo competitions	288	1	True	True	True	True	1.0859263000020292
video_on	action	3	eeg	2	-VtqvMJf7I0	Making a sandwich	Food&Drink_prep.&Presentation&Clean-up	Eating and drinking Activities	Food & Drink Prep., Presentation, & Clean-up	Food and drink preparation	129	5	True	False	False	True	0.8351967000016884
video_on	action	3	eeg	2	G6w30XAOs8s	Making a cake	Food&Drink_prep.&Presentation&Clean-up	Eating and drinking Activities	Food & Drink Prep., Presentation, & Clean-up	Food and drink preparation	332	5	False	False	False	True	0.0
video_on	action	3	eeg	2	lkvKgivJS3E	Playing flauta	Arts&Entertainment	Socializing, Relaxing, and Leisure	Arts and Entertainment	Playing musical instruments	149	2	True	False	False	True	0.0050725000000966
video_on	action	3	eeg	2	p_X9r3FamwE	Vacuuming floor	Housework	Household Activities	Housework	Interior cleaning	160	6	True	False	False	True	0.8069004000026325
video_on	action	3	eeg	2	EUfc0jmZr4M	Throwing darts	Relaxing&Leisure	Socializing, Relaxing, and Leisure	Relaxing and Leisure	Playing games	380	3	True	False	True	False	0.9969980999994732
video_on	action	3	eeg	2	pozoi5zFmcU	Drum corps	Arts&Entertainment	Socializing, Relaxing, and Leisure	Arts and Entertainment	Playing musical instruments	307	2	True	False	False	True	0.921269200000097
video_on	action	3	eeg	2	DYQJarAg05E	Blow-drying hair	Grooming	Personal Care	Grooming	Washing, dressing and grooming oneself	281	4	True	False	False	True	0.8709810000000289
video_on	action	3	eeg	2	p-8DxhWUDBU	Smoking a cigarette	Relaxing&Leisure	Socializing, Relaxing, and Leisure	Relaxing and Leisure	Tobacco and drug use	201	3	True	False	False	True	0.7844183000015619
video_on	action	3	eeg	2	0wLgR92A1H8	Playing drums	Arts&Entertainment	Socializing, Relaxing, and Leisure	Arts and Entertainment	Playing musical instruments	346	2	True	False	False	True	0.74352429999999
video_on	action	3	eeg	2	6wotcEIIhxE	Disc dog	Animals&Pets	Household Activities	Animals and Pets	Walking / exercising / playing with animals	303	8	True	False	False	True	0.9351747000000614
video_on	action	3	eeg	2	00PRzwBfIO4	Drinking coffee	Food&Drink_prep.&Presentation&Clean-up	Eating and drinking Activities	Food & Drink Prep., Presentation, & Clean-up	Eating and Drinking	68	5	True	False	False	True	0.9349335999977484
video_on	action	3	eeg	2	iH-JW2IQphw	Wrapping presents	Household_management	Household Activities	Household Management	Household & personal organization and planning	179	13	True	False	False	True	0.9189076000002387
video_on	action	3	eeg	2	5ijO5r4A61I	Getting a piercing	Grooming	Personal Care	Grooming	Washing, dressing and grooming	214	4	True	False	False	True	0.6317847000027541
video_on	action	3	eeg	2	m6yd9rkplHs	Riding bumper cars	Relaxing&Leisure	Socializing, Relaxing, and Leisure	Relaxing and Leisure	Playing games	356	3	True	False	False	True	0.9734077000030084
video_on	action	3	eeg	2	VBekuQYOlEY	Calf roping	Participating_in_sports&Exercise&Recreation	Sports, Exercise, and Recreation	Participating in Sports, Exercise, or Recreation	Participating in rodeo competitions	290	1	True	True	False	False	0.958477899999707
video_on	action	3	eeg	2	jBZrnsATpJY	Having an ice cream	Food&Drink_prep.&Presentation&Clean-up	Eating and drinking Activities	Food & Drink Prep., Presentation, & Clean-up	Eating and Drinking	320	5	True	False	False	True	0.8361850999972376
video_on	action	3	eeg	2	cx1H0tkKf2o	Putting on makeup	Grooming	Personal Care	Grooming	Washing, dressing and grooming oneself	76	4	False	False	False	True	0.0
video_on	action	3	eeg	2	HzrMwQzG9g0	Playing kickball	Participating_in_sports&Exercise&Recreation	Sports, Exercise, and Recreation	Participating in Sports, Exercise, or Recreation	Playing sports	257	1	True	True	False	False	0.0050740000006044
video_on	action	3	eeg	2	2zoW0Lju0Zw	Snow tubing	Participating_in_sports&Exercise&Recreation	Sports, Exercise, and Recreation	Participating in Sports, Exercise, or Recreation	Skiing, ice skating, snowboarding	372	1	False	True	False	False	0.0
video_on	action	3	eeg	2	jbcMoT-kehU	Cutting the grass	Lawn&Garden&Houseplants	Household Activities	Lawn, Garden, and Houseplants	Lawn, garden, and houseplant care	301	9	True	False	True	False	0.0050741000013658
video_on	action	3	eeg	2	d-C-TtPKlIs	Fixing the roof	Exterior_maintenance&Repair&Decoration	Household Activities	Exterior Maintenance, Repair, & Decoration	Exterior repair, improvements, & decoration	311	12	True	False	False	True	0.9784254000005604
video_on	action	3	eeg	2	uXVSvJnGs04	Hopscotch	Relaxing&Leisure	Socializing, Relaxing, and Leisure	Relaxing and Leisure	Playing games	241	3	True	False	False	True	0.901411700000608
video_on	action	3	eeg	2	VHVefCMs3Ks	Skateboarding	Participating_in_sports&Exercise&Recreation	Sports, Exercise, and Recreation	Participating in Sports, Exercise, or Recreation	Playing sports	176	1	True	True	False	False	0.9711530999993556
video_on	action	3	eeg	2	c90yU3uzG4w	Spread mulch	Lawn&Garden&Houseplants	Household Activities	Lawn, Garden, and Houseplants	Lawn, garden, and houseplant care	374	9	True	False	False	True	0.8266828999985592
video_on	action	3	eeg	2	TExsQhdf6hc	Making an omelette	Food&Drink_prep.&Presentation&Clean-up	Eating and drinking Activities	Food & Drink Prep., Presentation, & Clean-up	Food and drink preparation	334	5	True	False	False	True	0.8072740999996313
video_on	action	3	eeg	2	Jt-_P4dwJZE	Painting furniture	Interior_maintenance&Repair&Decoration	Household Activities	Interior Maintenance, Repair, & Decoration	Building and repairing furniture	337	7	True	False	False	True	0.8413980000004813
video_on	action	3	eeg	2	Ye6o013SsYs	Running a marathon	Participating_in_sports&Exercise&Recreation	Sports, Exercise, and Recreation	Participating in Sports, Exercise, or Recreation	Running	362	1	True	True	True	True	0.971837900000537
video_on	action	3	eeg	2	KAmZFQlu4ZM	Powerbocking	Participating_in_sports&Exercise&Recreation	Sports, Exercise, and Recreation	Participating in Sports, Exercise, or Recreation	Playing sports	350	1	True	True	True	True	0.9798458999975992
video_on	action	3	eeg	2	nRFVKUddByY	High jump	Participating_in_sports&Exercise&Recreation	Sports, Exercise, and Recreation	Participating in Sports, Exercise, or Recreation	Playing sports	195	1	True	True	True	True	0.7581686000012269
video_on	action	3	eeg	2	xurmzOE7Wv4	Beer pong	Relaxing&Leisure	Socializing, Relaxing, and Leisure	Relaxing and Leisure	Playing games	280	3	True	False	True	False	0.926724800003285
video_on	action	3	eeg	2	Fvubcj25bHE	Cleaning sink	Interior_maintenance&Repair&Decoration	Household Activities	Interior Maintenance, Repair, & Decoration	Interior arrangement, decoration, & repairs	297	7	True	False	False	True	0.5878175000034389
video_on	action	3	eeg	2	ZN9kbYULUtw	Doing karate	Participating_in_sports&Exercise&Recreation	Sports, Exercise, and Recreation	Participating in Sports, Exercise, or Recreation	Participating in martial arts	99	1	True	True	True	True	0.9296939999985624
video_on	action	3	eeg	2	-4DjGpQ8TKk	Polishing forniture	Housework	Household Activities	Housework	Interior cleaning	156	6	True	False	False	True	0.8042979999991076
video_on	action	3	eeg	2	WAn0-Xm1mvI	Using the pommel horse	Participating_in_sports&Exercise&Recreation	Sports, Exercise, and Recreation	Participating in Sports, Exercise, or Recreation	Doing gymnastics	114	1	True	True	True	True	0.9390318000005208
video_on	action	3	eeg	2	8X0YSCQjtVw	Mooping floor	Housework	Household Activities	Housework	Interior cleaning	335	6	True	False	False	True	0.8938288999997894
video_on	action	3	eeg	2	PxBJuCzYbrY	Tumbling	Participating_in_sports&Exercise&Recreation	Sports, Exercise, and Recreation	Participating in Sports, Exercise, or Recreation	Doing gymnastics	258	1	False	True	False	False	0.0
video_on	action	3	eeg	2	cHfBBT8xZH8	Doing kickboxing	Participating_in_sports&Exercise&Recreation	Sports, Exercise, and Recreation	Participating in Sports, Exercise, or Recreation	Participating in martial arts	70	1	True	True	False	False	0.0050695999998424
video_on	action	3	eeg	2	nfMc1vkChGw	Elliptical trainer	Participating_in_sports&Exercise&Recreation	Sports, Exercise, and Recreation	Participating in Sports, Exercise, or Recreation	Using cardiovascular equipment	308	1	True	True	True	True	0.944360500001494
video_on	action	3	eeg	2	EpWXajZNRno	Starting a campfire	Participating_in_sports&Exercise&Recreation	Sports, Exercise, and Recreation	Participating in Sports, Exercise, or Recreation	Playing sports	153	1	True	True	False	False	0.8161591999996745
video_on	action	3	eeg	2	edoYQ6IVXY0	Getting a tattoo	Grooming	Personal Care	Grooming	Washing, dressing and grooming	187	4	True	False	False	True	0.991804699999193
video_on	action	3	eeg	2	jOHqBZrBjOQ	Using the monkey bar	Arts&Entertainment	Socializing, Relaxing, and Leisure	Arts and Entertainment	Park activities	383	2	True	False	False	True	0.9727434999986144
video_on	action	3	eeg	2	9OPHr99fzsg	Hand washing clothes	Housework	Household Activities	Housework	Laundry	232	6	True	False	False	True	0.8739122999977553
video_on	action	3	eeg	2	GiLL9rFYvL8	Slacklining	Relaxing&Leisure	Socializing, Relaxing, and Leisure	Relaxing and Leisure	Playing games	371	3	True	False	True	False	0.8644922999992559
video_on	action	3	eeg	2	_KbE-PPv1XU	Surfing	Participating_in_sports&Exercise&Recreation	Sports, Exercise, and Recreation	Participating in Sports, Exercise, or Recreation	Participating in water sports	376	1	False	True	False	False	0.0
video_on	action	3	eeg	2	M4EH7Omxkc8	Croquet	Participating_in_sports&Exercise&Recreation	Sports, Exercise, and Recreation	Participating in Sports, Exercise, or Recreation	Playing sports	299	1	True	True	True	True	0.0050701000000117
video_on	action	3	eeg	2	coS29e5yIFo	Table soccer	Relaxing&Leisure	Socializing, Relaxing, and Leisure	Relaxing and Leisure	Playing games	379	3	True	False	False	True	0.7321483999985503
video_on	action	3	eeg	2	URyIW14qzwc	Smoking hookah	Relaxing&Leisure	Socializing, Relaxing, and Leisure	Relaxing and Leisure	Tobacco and drug use	189	3	True	False	False	True	0.6746676000002481
video_on	action	3	eeg	2	OGlG6O_0_fM	Playing water polo	Participating_in_sports&Exercise&Recreation	Sports, Exercise, and Recreation	Participating in Sports, Exercise, or Recreation	Participating in water sports	130	1	True	True	True	True	0.9422674000015832
video_on	action	3	eeg	2	ZgI8_iLEG0Q	Preparing salad	Food&Drink_prep.&Presentation&Clean-up	Eating and drinking Activities	Food & Drink Prep., Presentation, & Clean-up	Food and drink preparation	96	5	True	False	False	True	0.855289699997229
video_on	action	3	eeg	2	3YtzTgv-bDI	Rock-paper-scissors	Relaxing&Leisure	Socializing, Relaxing, and Leisure	Relaxing and Leisure	Playing games	358	3	True	False	True	False	1.046875899999577
video_on	action	3	eeg	2	v8O8ASJGg5E	Carving jack-o-lanterns	Interior_maintenance&Repair&Decoration	Household Activities	Interior Maintenance, Repair, & Decoration	Interior arrangement, decoration, & repairs	295	7	True	False	False	True	0.9324222000032024
video_on	action	3	eeg	2	CX-XHpmNmEk	Bungee jumping	Participating_in_sports&Exercise&Recreation	Sports, Exercise, and Recreation	Participating in Sports, Exercise, or Recreation	Playing sports	154	1	True	True	False	False	0.972696900000301
video_on	action	3	eeg	2	Hm05ABIO2Vk	Volleyball	Participating_in_sports&Exercise&Recreation	Sports, Exercise, and Recreation	Participating in Sports, Exercise, or Recreation	Playing volleyball	123	1	False	True	False	False	0.0
video_on	action	3	eeg	2	osK0e5xmy2k	Tug of war	Relaxing&Leisure	Socializing, Relaxing, and Leisure	Relaxing and Leisure	Playing games	382	3	True	False	True	False	0.0050695999998424
video_on	action	3	eeg	2	SRgOznT6iVE	Playing congas	Arts&Entertainment	Socializing, Relaxing, and Leisure	Arts and Entertainment	Playing musical instruments	345	2	True	False	True	False	0.0050687000002653
video_on	action	3	eeg	2	d9__HdGv3iM	Kayaking	Participating_in_sports&Exercise&Recreation	Sports, Exercise, and Recreation	Participating in Sports, Exercise, or Recreation	Participating in water sports	254	1	True	True	True	True	0.9800939000015204
video_on	action	3	eeg	2	3w7v24Acles	Ballet	Arts&Entertainment	Socializing, Relaxing, and Leisure	Arts and Entertainment	Attending arts and entertainment	229	2	True	False	False	True	0.7957443999985117
video_on	action	3	eeg	2	BomiIXnCZlg	Kite flying	Relaxing&Leisure	Socializing, Relaxing, and Leisure	Relaxing and Leisure	Playing games	327	3	False	False	False	True	0.0
video_on	action	3	eeg	2	VzG9RxK9tPk	Laying tile	Interior_maintenance&Repair&Decoration	Household Activities	Interior Maintenance, Repair, & Decoration	Interior arrangement, decoration, & repairs	330	7	True	False	False	True	0.0050773000002664
video_on	action	3	eeg	2	l_hZjvCMmBY	Playing squash	Participating_in_sports&Exercise&Recreation	Sports, Exercise, and Recreation	Participating in Sports, Exercise, or Recreation	Playing racquet sports	194	1	True	True	False	False	0.0050707999980659
video_on	action	3	meg	3	Tr_1LL7FatM	Playing pool	Relaxing&Leisure	Socializing, Relaxing, and Leisure	Relaxing and Leisure	Playing games	348	3	True	False	False	True	0.3966027762799058
video_on	action	3	meg	3	CZkN0zEY6eQ	Tango	Arts&Entertainment	Socializing, Relaxing, and Leisure	Arts and Entertainment	Dancing	73	2	True	False	False	True	0.2365052124951034
video_on	action	3	meg	3	OVL-FDivw7Q	High jump	Participating_in_sports&Exercise&Recreation	Sports, Exercise, and Recreation	Participating in Sports, Exercise, or Recreation	Playing sports	195	1	True	True	True	True	0.5741772961919196
video_on	action	3	meg	3	u2GdlWpwG30	Having an ice cream	Food&Drink_prep.&Presentation&Clean-up	Eating and drinking Activities	Food & Drink Prep., Presentation, & Clean-up	Eating and Drinking	320	5	True	False	False	True	0.3988794655888341
video_on	action	3	meg	3	hv_M8mUUswk	Laying tile	Interior_maintenance&Repair&Decoration	Household Activities	Interior Maintenance, Repair, & Decoration	Interior arrangement, decoration, & repairs	330	7	True	False	False	True	0.3317950134514831
video_on	action	3	meg	3	jF0s2q5bCaM	Ballet	Arts&Entertainment	Socializing, Relaxing, and Leisure	Arts and Entertainment	Attending arts and entertainment	229	2	True	False	False	True	0.5253794104792178
video_on	action	3	meg	3	vLHAtxJPpEI	Bungee jumping	Participating_in_sports&Exercise&Recreation	Sports, Exercise, and Recreation	Participating in Sports, Exercise, or Recreation	Playing sports	154	1	True	True	False	False	0.5086224097758532
video_on	action	3	meg	3	nYkQA3uH_ek	Smoking a cigarette	Relaxing&Leisure	Socializing, Relaxing, and Leisure	Relaxing and Leisure	Tobacco and drug use	201	3	True	False	False	True	0.4048310972284525
video_on	action	3	meg	3	5O3zQBpAprk	Powerbocking	Participating_in_sports&Exercise&Recreation	Sports, Exercise, and Recreation	Participating in Sports, Exercise, or Recreation	Playing sports	350	1	True	True	True	True	0.4216194922337308
video_on	action	3	meg	3	NDAL0eQQ1O8	Waterskiing	Participating_in_sports&Exercise&Recreation	Sports, Exercise, and Recreation	Participating in Sports, Exercise, or Recreation	Participating in water sports	386	1	True	True	True	True	0.7256972776085604
video_on	action	3	meg	3	YDha6mhBng8	Kneeling	Participating_in_sports&Exercise&Recreation	Sports, Exercise, and Recreation	Participating in Sports, Exercise, or Recreation	Working out	328	1	True	True	True	True	0.3573285276070237
video_on	action	3	meg	3	SRMMxSNlMDs	Drinking coffee	Food&Drink_prep.&Presentation&Clean-up	Eating and drinking Activities	Food & Drink Prep., Presentation, & Clean-up	Eating and Drinking	68	5	True	False	False	True	0.005101571092382
video_on	action	3	meg	3	6pS1TeY0pcw	Polishing shoes	Housework	Household Activities	Housework	Sewing, repairing, & maintaining textiles	227	6	True	False	False	True	0.3344644331373274
video_on	action	3	meg	3	Yf7Lxhap-Ag	Breakdancing	Arts&Entertainment	Socializing, Relaxing, and Leisure	Arts and Entertainment	Dancing	236	2	True	False	False	True	0.0051550017378758
video_on	action	3	meg	3	PMXnaL9DO0o	Running a marathon	Participating_in_sports&Exercise&Recreation	Sports, Exercise, and Recreation	Participating in Sports, Exercise, or Recreation	Running	362	1	True	True	False	False	0.4698842788639013
video_on	action	3	meg	3	pJVk9uSg-Uk	Ping-pong	Participating_in_sports&Exercise&Recreation	Sports, Exercise, and Recreation	Participating in Sports, Exercise, or Recreation	Playing racquet sports	119	1	True	True	True	True	0.4221103297895752
video_on	action	3	meg	3	MOTvAmEvgsU	Playing racquetball	Participating_in_sports&Exercise&Recreation	Sports, Exercise, and Recreation	Participating in Sports, Exercise, or Recreation	Playing racquet sports	253	1	True	True	True	True	0.2701994291855953
video_on	action	3	meg	3	EZHjs7u_fVY	Assembling bicycle	Vehicles	Household Activities	Vehicles	Vehicle repair and maintenance (by self)	273	11	True	False	False	True	0.4471813819836825
video_on	action	3	meg	3	QR51JYATZOQ	Putting on shoes	Grooming	Personal Care	Grooming	Washing, dressing and grooming oneself	352	4	True	False	False	True	0.5024184163776226
video_on	action	3	meg	3	3wCiFJrMaZ0	Wakeboarding	Participating_in_sports&Exercise&Recreation	Sports, Exercise, and Recreation	Participating in Sports, Exercise, or Recreation	Participating in water sports	385	1	True	True	False	False	0.3188813975139055
video_on	action	3	meg	3	JLFUsHAhuIg	Chopping wood	Interior_maintenance&Repair&Decoration	Household Activities	Interior Maintenance, Repair, & Decoration	Heating and cooling	110	7	True	False	False	True	0.4317713167984038
video_on	action	3	meg	3	l4TBMuAg9y4	Dodgeball	Participating_in_sports&Exercise&Recreation	Sports, Exercise, and Recreation	Participating in Sports, Exercise, or Recreation	Playing sports	161	1	True	True	True	True	0.4472200211021118
video_on	action	3	meg	3	vfQYqb_tp8c	Doing kickboxing	Participating_in_sports&Exercise&Recreation	Sports, Exercise, and Recreation	Participating in Sports, Exercise, or Recreation	Participating in martial arts	70	1	True	True	True	True	0.6077963477000594
video_on	action	3	meg	3	p_3QUTizxyY	Canoeing	Participating_in_sports&Exercise&Recreation	Sports, Exercise, and Recreation	Participating in Sports, Exercise, or Recreation	Boating	292	1	True	True	True	True	0.4953918323444668
video_on	action	3	meg	3	V4Cx58njydI	Rope skipping	Participating_in_sports&Exercise&Recreation	Sports, Exercise, and Recreation	Participating in Sports, Exercise, or Recreation	Working out	361	1	True	True	True	True	0.279585414333269
video_on	action	3	meg	3	vQxw4wfZXb0	Decorating the Christmas tree	Interior_maintenance&Repair&Decoration	Household Activities	Interior Maintenance, Repair, & Decoration	Interior arrangement, decoration, & repairs	302	7	True	False	False	True	0.494402006821474
video_on	action	3	meg	3	JghgJToVP00	Playing accordion	Arts&Entertainment	Socializing, Relaxing, and Leisure	Arts and Entertainment	Playing musical instruments	267	2	True	False	False	True	0.671782425546553
video_on	action	3	meg	3	zhTaeaWwHN0	Putting in contact lenses	Grooming	Personal Care	Grooming	Washing, dressing and grooming oneself	351	4	True	False	False	True	0.5047029542329255
video_on	action	3	meg	3	qKI8009CHjM	Using uneven bars	Participating_in_sports&Exercise&Recreation	Sports, Exercise, and Recreation	Participating in Sports, Exercise, or Recreation	Doing gymnastics	192	1	True	True	True	True	0.4889031773200258
video_on	action	3	meg	3	auavC2MGnMU	Doing karate	Participating_in_sports&Exercise&Recreation	Sports, Exercise, and Recreation	Participating in Sports, Exercise, or Recreation	Participating in martial arts	99	1	True	True	True	True	0.4250846362556331
video_on	action	3	meg	3	6O5Ns4F9FAQ	Beer pong	Relaxing&Leisure	Socializing, Relaxing, and Leisure	Relaxing and Leisure	Playing games	280	3	True	False	False	True	0.2892992282577324
video_on	action	3	meg	3	XIYEB-1Q9BY	Pole vault	Participating_in_sports&Exercise&Recreation	Sports, Exercise, and Recreation	Participating in Sports, Exercise, or Recreation	Playing sports	106	1	True	True	True	True	0.3280723759089596
video_on	action	3	meg	3	pqbUqEuw7w0	Hurling	Participating_in_sports&Exercise&Recreation	Sports, Exercise, and Recreation	Participating in Sports, Exercise, or Recreation	Playing sports	323	1	True	True	False	False	0.4809444245765917
video_on	action	3	meg	3	wBU3qhxyamw	Swinging at the playground	Arts&Entertainment	Socializing, Relaxing, and Leisure	Arts and Entertainment	Park activities	378	2	True	False	False	True	0.6829750913311727
video_on	action	3	meg	3	E7_C8hYNZI4	Hanging wallpaper	Interior_maintenance&Repair&Decoration	Household Activities	Interior Maintenance, Repair, & Decoration	Interior arrangement, decoration, & repairs	319	7	True	False	False	True	0.3298304557683877
video_on	action	3	meg	3	vbJIKirBMYM	Snow tubing	Participating_in_sports&Exercise&Recreation	Sports, Exercise, and Recreation	Participating in Sports, Exercise, or Recreation	Skiing, ice skating, snowboarding	372	1	True	True	False	False	0.3213144545152318
video_on	action	3	meg	3	CvlTSctltuw	Hula hoop	Relaxing&Leisure	Socializing, Relaxing, and Leisure	Relaxing and Leisure	Playing games	322	3	True	False	False	True	0.4901833999610971
video_on	action	3	meg	3	z9EussRY4lk	Playing piano	Arts&Entertainment	Socializing, Relaxing, and Leisure	Arts and Entertainment	Playing musical instruments	197	2	True	False	False	True	0.6024194729106966
video_on	action	3	meg	3	6SdD3YPiJLI	Starting a campfire	Participating_in_sports&Exercise&Recreation	Sports, Exercise, and Recreation	Participating in Sports, Exercise, or Recreation	Playing sports	153	1	True	True	False	False	0.5211777082295157
video_on	action	3	meg	3	fAqWLjeu78c	Hand car wash	Vehicles	Household Activities	Vehicles	Vehicle repair and maintenance (by self)	318	11	True	False	False	True	0.3941075344628189
video_on	action	3	meg	3	8WEyq8pT_ow	Getting a haircut	Grooming	Personal Care	Grooming	Washing, dressing and grooming	208	4	True	False	False	True	0.0051006654684897
video_on	action	3	meg	3	bLhwgQrjyWM	Horseback riding	Participating_in_sports&Exercise&Recreation	Sports, Exercise, and Recreation	Participating in Sports, Exercise, or Recreation	Participating in equestrian sports	175	1	True	True	False	False	0.0051064009603578
video_on	action	3	meg	3	zrHgRKJzji8	Tumbling	Participating_in_sports&Exercise&Recreation	Sports, Exercise, and Recreation	Participating in Sports, Exercise, or Recreation	Doing gymnastics	258	1	True	True	True	True	0.354306224064203
video_on	action	3	meg	3	cPCcszAgkVU	Archery	Participating_in_sports&Exercise&Recreation	Sports, Exercise, and Recreation	Participating in Sports, Exercise, or Recreation	Playing sports	250	1	True	True	True	True	0.4586402954882942
video_on	action	3	meg	3	xbduQM4nz-E	Carving jack-o-lanterns	Interior_maintenance&Repair&Decoration	Household Activities	Interior Maintenance, Repair, & Decoration	Interior arrangement, decoration, & repairs	295	7	True	False	False	True	0.4667360963358078
video_on	action	3	meg	3	vfBM4NVHo_0	Making a sandwich	Food&Drink_prep.&Presentation&Clean-up	Eating and drinking Activities	Food & Drink Prep., Presentation, & Clean-up	Food and drink preparation	129	5	True	False	False	True	0.3475558493519202
video_on	action	3	meg	3	XEcKXPIR8bE	Painting	Interior_maintenance&Repair&Decoration	Household Activities	Interior Maintenance, Repair, & Decoration	Interior arrangement, decoration, & repairs	217	7	True	False	False	True	0.3629794986045453
video_on	action	3	meg	3	oF6FipH9NWg	Preparing pasta	Food&Drink_prep.&Presentation&Clean-up	Eating and drinking Activities	Food & Drink Prep., Presentation, & Clean-up	Food and drink preparation	186	5	True	False	False	True	0.4112841318419669
video_on	action	3	meg	3	fIkj0Dfy64Y	Rock-paper-scissors	Relaxing&Leisure	Socializing, Relaxing, and Leisure	Relaxing and Leisure	Playing games	358	3	True	False	False	True	0.0053732523520011
video_on	action	3	meg	3	6ECElQXTBIY	Baton twirling	Participating_in_sports&Exercise&Recreation	Sports, Exercise, and Recreation	Participating in Sports, Exercise, or Recreation	Playing sports	277	1	True	True	False	False	0.3562043707352131
video_on	action	3	meg	3	3mNUi5dxASQ	Disc dog	Animals&Pets	Household Activities	Animals and Pets	Walking / exercising / playing with animals	303	8	True	False	False	True	0.5716340573562775
video_on	action	3	meg	3	xcU-fKUcj1A	Making an omelette	Food&Drink_prep.&Presentation&Clean-up	Eating and drinking Activities	Food & Drink Prep., Presentation, & Clean-up	Food and drink preparation	334	5	True	False	False	True	0.5719609805382788
video_on	action	3	meg	3	qe_6cxyKd4o	Washing dishes	Food&Drink_prep.&Presentation&Clean-up	Eating and drinking Activities	Food & Drink Prep., Presentation, & Clean-up	Kitchen and food clean-up	213	5	True	False	False	True	0.4519460682640783
video_on	action	3	meg	3	3wQaqy1bPR4	Blow-drying hair	Grooming	Personal Care	Grooming	Washing, dressing and grooming oneself	281	4	True	False	False	True	0.3961771422473248
video_on	action	3	meg	3	ElffEY46RhM	Playing water polo	Participating_in_sports&Exercise&Recreation	Sports, Exercise, and Recreation	Participating in Sports, Exercise, or Recreation	Participating in water sports	130	1	True	True	True	True	0.4525132784328889
video_on	action	3	meg	3	ep5lN_jtf8o	Cutting the grass	Lawn&Garden&Houseplants	Household Activities	Lawn, Garden, and Houseplants	Lawn, garden, and houseplant care	301	9	True	False	False	True	0.4274096244771499
video_on	action	3	meg	3	hz6cO7QY8TM	Hopscotch	Relaxing&Leisure	Socializing, Relaxing, and Leisure	Relaxing and Leisure	Playing games	241	3	True	False	False	True	0.637328406854067
video_on	action	3	meg	3	53aXunbbL_I	Knitting	Housework	Household Activities	Housework	Sewing, repairing, & maintaining textiles	329	6	True	False	False	True	0.7007472745026462
video_on	action	3	meg	3	uDygr_x3P8k	Zumba	Participating_in_sports&Exercise&Recreation	Sports, Exercise, and Recreation	Participating in Sports, Exercise, or Recreation	Doing aerobics	69	1	True	True	False	False	0.901135175023228
video_on	action	3	meg	3	_HKfTFY0V2Q	Playing field hockey	Participating_in_sports&Exercise&Recreation	Sports, Exercise, and Recreation	Participating in Sports, Exercise, or Recreation	Playing hockey	94	1	True	True	True	True	0.1812029746070038
video_on	action	3	meg	3	PzYdqmzX8oY	Snowboarding	Participating_in_sports&Exercise&Recreation	Sports, Exercise, and Recreation	Participating in Sports, Exercise, or Recreation	Skiing, ice skating, snowboarding	373	1	True	True	True	True	0.1654922487796284
video_on	action	3	meg	3	WRFV3Y-zlJY	Paintball	Participating_in_sports&Exercise&Recreation	Sports, Exercise, and Recreation	Participating in Sports, Exercise, or Recreation	Playing sports	141	1	True	True	False	False	0.4214561815897468
video_on	action	3	meg	3	LvZVydy55u4	Painting furniture	Interior_maintenance&Repair&Decoration	Household Activities	Interior Maintenance, Repair, & Decoration	Building and repairing furniture	337	7	True	False	False	True	0.495863048476167
video_on	action	3	meg	3	7v92qv1-pEc	Using the pommel horse	Participating_in_sports&Exercise&Recreation	Sports, Exercise, and Recreation	Participating in Sports, Exercise, or Recreation	Doing gymnastics	114	1	True	True	True	True	0.6385250120365527
video_on	action	3	meg	3	IxdNdNEGj-A	Trimming branches or hedges	Lawn&Garden&Houseplants	Household Activities	Lawn, Garden, and Houseplants	Lawn, garden, and houseplant care	381	9	True	False	False	True	0.3407641187368426
video_on	action	3	meg	3	qymBJLMwjHg	Doing fencing	Participating_in_sports&Exercise&Recreation	Sports, Exercise, and Recreation	Participating in Sports, Exercise, or Recreation	Fencing	309	1	True	True	True	True	0.3902454338676762
video_on	action	3	meg	3	EE7MbrxA-sI	Bathing dog	Animals&Pets	Household Activities	Animals and Pets	Care for animals and pets (not veterinary care)	90	8	True	False	False	True	0.5030188320379239
video_on	action	3	meg	3	HEp6VCyx_60	Using the rowing machine	Participating_in_sports&Exercise&Recreation	Sports, Exercise, and Recreation	Participating in Sports, Exercise, or Recreation	Using cardiovascular equipment	384	1	True	True	True	True	0.5446527837484609
video_on	action	3	meg	3	2Z9ZK7ZizVA	Getting a piercing	Grooming	Personal Care	Grooming	Washing, dressing and grooming	214	4	True	False	False	True	0.3905717532907147
video_on	action	3	meg	3	NfKShaINTuI	Cricket	Participating_in_sports&Exercise&Recreation	Sports, Exercise, and Recreation	Participating in Sports, Exercise, or Recreation	Playing sports	82	1	True	True	True	True	0.4226636540261097
video_on	action	3	meg	3	DNwViOe5a4I	Capoeira	Participating_in_sports&Exercise&Recreation	Sports, Exercise, and Recreation	Participating in Sports, Exercise, or Recreation	Participating in martial arts	294	1	True	True	True	True	0.2149895628972444
video_on	action	3	meg	3	xHgzIoKp_Ns	Grooming dog	Animals&Pets	Household Activities	Animals and Pets	Care for animals and pets (not veterinary care)	317	8	True	False	False	True	0.0051024766871705
video_on	action	3	meg	3	s5vsj-9JEcQ	Longboarding	Participating_in_sports&Exercise&Recreation	Sports, Exercise, and Recreation	Participating in Sports, Exercise, or Recreation	Playing sports	331	1	True	True	True	True	0.3259378664661199
video_on	action	3	meg	3	AOCt34tb4AE	Camel ride	Participating_in_sports&Exercise&Recreation	Sports, Exercise, and Recreation	Participating in Sports, Exercise, or Recreation	Playing sports	291	1	True	True	False	False	0.31876638578251
video_on	action	3	meg	3	YcUWCvCsJps	Rafting	Participating_in_sports&Exercise&Recreation	Sports, Exercise, and Recreation	Participating in Sports, Exercise, or Recreation	Boating	353	1	True	True	True	True	0.3057821327238343
video_on	action	3	meg	3	i0eDBPO_MIU	Raking leaves	Lawn&Garden&Houseplants	Household Activities	Lawn, Garden, and Houseplants	Lawn, garden, and houseplant care	354	9	True	False	False	True	0.0051006654684897
video_on	action	3	meg	3	dQjZgOU84i0	Vacuuming floor	Housework	Household Activities	Housework	Interior cleaning	160	6	True	False	False	True	0.647920958843315
video_on	action	3	meg	3	palWRs6onTA	Doing nails	Grooming	Personal Care	Grooming	Washing, dressing and grooming oneself	167	4	True	False	False	True	0.4632926867925562
video_on	action	3	meg	3	1dtdrwuGklI	Grooming horse	Animals&Pets	Household Activities	Animals and Pets	Walking / exercising / playing with animals	95	8	True	False	False	True	0.4068844041321426
video_on	action	3	meg	3	fUivipdikFU	Doing step aerobics	Participating_in_sports&Exercise&Recreation	Sports, Exercise, and Recreation	Participating in Sports, Exercise, or Recreation	Doing aerobics	230	1	True	True	True	True	0.4081703622941859
video_on	action	3	meg	3	YyPPz66aDvE	Drum corps	Arts&Entertainment	Socializing, Relaxing, and Leisure	Arts and Entertainment	Playing musical instruments	307	2	True	False	False	True	0.5206071775173768
video_on	action	3	meg	3	StYpbHdEoBg	Kite flying	Relaxing&Leisure	Socializing, Relaxing, and Leisure	Relaxing and Leisure	Playing games	327	3	True	False	False	True	0.5047002374194562
video_on	action	3	meg	3	svMMaGMsIMw	Fixing bicycle	Vehicles	Household Activities	Vehicles	Vehicle repair and maintenance (by self)	171	11	True	False	False	True	0.4189823724154848
video_on	action	3	meg	3	rfA99o2YtWQ	Playing guitarra	Arts&Entertainment	Socializing, Relaxing, and Leisure	Arts and Entertainment	Playing musical instruments	251	2	True	False	False	True	0.2728914889739826
video_on	action	3	meg	3	arNCTTl0IXM	Playing drums	Arts&Entertainment	Socializing, Relaxing, and Leisure	Arts and Entertainment	Playing musical instruments	346	2	True	False	False	True	0.345111623260891
video_on	action	3	meg	3	dIbQuduZ38s	Playing saxophone	Arts&Entertainment	Socializing, Relaxing, and Leisure	Arts and Entertainment	Playing musical instruments	109	2	True	False	False	True	0.385349434975069
video_on	action	3	meg	3	D95Y1BSI2UI	Playing rubik cube	Relaxing&Leisure	Socializing, Relaxing, and Leisure	Relaxing and Leisure	Playing games	349	3	True	False	False	True	0.449309250281658
video_on	action	3	meg	3	l05ed04MZuA	Swimming	Participating_in_sports&Exercise&Recreation	Sports, Exercise, and Recreation	Participating in Sports, Exercise, or Recreation	Participating in water sports	377	1	True	True	True	True	0.4517208746401593
video_on	action	3	meg	3	Vhv9WtzlmU4	Clean and jerk	Participating_in_sports&Exercise&Recreation	Sports, Exercise, and Recreation	Participating in Sports, Exercise, or Recreation	Weightlifting	84	1	True	True	True	True	0.3871452483581379
video_on	action	3	meg	3	z4TNES4QwTM	Building sandcastles	Arts&Entertainment	Socializing, Relaxing, and Leisure	Arts and Entertainment	Beach activities	286	2	False	False	False	True	0.0
video_on	action	3	eeg	3	-ngQ699_U2I	Swimming	Participating_in_sports&Exercise&Recreation	Sports, Exercise, and Recreation	Participating in Sports, Exercise, or Recreation	Participating in water sports	377	1	True	True	False	False	0.8109492000003229
video_on	action	3	eeg	3	QHCbXg9AcYY	Cleaning windows	Housework	Household Activities	Housework	Interior cleaning	143	6	True	False	False	True	0.6263724000018556
video_on	action	3	eeg	3	FKKmNm-sdpg	Chopping wood	Interior_maintenance&Repair&Decoration	Household Activities	Interior Maintenance, Repair, & Decoration	Heating and cooling	110	7	True	False	False	True	0.809617499999149
video_on	action	3	eeg	3	dy8c6VPp7d8	Decorating the Christmas tree	Interior_maintenance&Repair&Decoration	Household Activities	Interior Maintenance, Repair, & Decoration	Interior arrangement, decoration, & repairs	302	7	True	False	False	True	0.6968631000017922
video_on	action	3	eeg	3	R9On-uKeQKM	Snowboarding	Participating_in_sports&Exercise&Recreation	Sports, Exercise, and Recreation	Participating in Sports, Exercise, or Recreation	Skiing, ice skating, snowboarding	373	1	True	True	True	True	1.0547977999995055
video_on	action	3	eeg	3	vUQ6yG7bpso	Snatch	Participating_in_sports&Exercise&Recreation	Sports, Exercise, and Recreation	Participating in Sports, Exercise, or Recreation	Weightlifting	79	1	True	True	True	True	0.658364499999152
video_on	action	3	eeg	3	cKXFxLPH9QE	Making an omelette	Food&Drink_prep.&Presentation&Clean-up	Eating and drinking Activities	Food & Drink Prep., Presentation, & Clean-up	Food and drink preparation	334	5	True	False	False	True	0.9420164000002842
video_on	action	3	eeg	3	S125eT0psJs	Ice fishing	Participating_in_sports&Exercise&Recreation	Sports, Exercise, and Recreation	Participating in Sports, Exercise, or Recreation	Fishing	324	1	True	True	False	False	0.7044204000012542
video_on	action	3	eeg	3	ItozdCAC_JI	Getting a piercing	Grooming	Personal Care	Grooming	Washing, dressing and grooming	214	4	True	False	False	True	0.8247066000003542
