event_name	task	subject	session	run	video_id	class_name	raw_superclass_name	superclass_level0	superclass_level1	superclass_level2	class_id	superclass_id	is_resp	stim_is_sports	resp_is_sports	resp_is_right	resp_time
video_on	action	31	eeg	1	9dnimESPTCM	Snowboarding	Participating_in_sports&Exercise&Recreation	Sports, Exercise, and Recreation	Participating in Sports, Exercise, or Recreation	Skiing, ice skating, snowboarding	373	1	True	True	True	True	0.7253858000040054
video_on	action	31	eeg	1	cqh6u6mJfEI	Ice fishing	Participating_in_sports&Exercise&Recreation	Sports, Exercise, and Recreation	Participating in Sports, Exercise, or Recreation	Fishing	324	1	True	True	False	False	0.7930952000024263
video_on	action	31	eeg	1	qDSXmfpeGVE	Hammer throw	Participating_in_sports&Exercise&Recreation	Sports, Exercise, and Recreation	Participating in Sports, Exercise, or Recreation	Playing sports	224	1	True	True	True	True	0.7036175999965053
video_on	action	31	eeg	1	VvsbYFmddIc	Preparing pasta	Food&Drink_prep.&Presentation&Clean-up	Eating and drinking Activities	Food & Drink Prep., Presentation, & Clean-up	Food and drink preparation	186	5	True	False	False	True	0.6274333000037586
video_on	action	31	eeg	1	Oxvqi-HMYk8	Drum corps	Arts&Entertainment	Socializing, Relaxing, and Leisure	Arts and Entertainment	Playing musical instruments	307	2	True	False	False	True	0.590477900012047
video_on	action	31	eeg	1	nXj9rNMu3jg	Tumbling	Participating_in_sports&Exercise&Recreation	Sports, Exercise, and Recreation	Participating in Sports, Exercise, or Recreation	Doing gymnastics	258	1	True	True	True	True	0.7977504000009503
video_on	action	31	eeg	1	jzs9lVDb7h8	Grooming horse	Animals&Pets	Household Activities	Animals and Pets	Walking / exercising / playing with animals	95	8	True	False	False	True	0.7008142999984557
video_on	action	31	eeg	1	hM-FIpO9oKk	Disc dog	Animals&Pets	Household Activities	Animals and Pets	Walking / exercising / playing with animals	303	8	True	False	False	True	0.5074621000094339
video_on	action	31	eeg	1	6BcdMCG97wo	Throwing darts	Relaxing&Leisure	Socializing, Relaxing, and Leisure	Relaxing and Leisure	Playing games	380	3	True	False	False	True	0.7998297000012826
video_on	action	31	eeg	1	Fpgl-iVKmp0	Playing field hockey	Participating_in_sports&Exercise&Recreation	Sports, Exercise, and Recreation	Participating in Sports, Exercise, or Recreation	Playing hockey	94	1	True	True	True	True	0.639917599997716
video_on	action	31	eeg	1	tzR8bNJnIyo	Getting a piercing	Grooming	Personal Care	Grooming	Washing, dressing and grooming	214	4	True	False	False	True	0.5249899999907939
video_on	action	31	eeg	1	TlnNdO49Rbk	Discus throw	Participating_in_sports&Exercise&Recreation	Sports, Exercise, and Recreation	Participating in Sports, Exercise, or Recreation	Playing sports	92	1	True	True	True	True	0.6050462999992305
video_on	action	31	eeg	1	O3rRQepu_Iw	Mixing drinks	Food&Drink_prep.&Presentation&Clean-up	Eating and drinking Activities	Food & Drink Prep., Presentation, & Clean-up	Food and drink preparation	244	5	True	False	False	True	0.7169355999940308
video_on	action	31	eeg	1	PXC-3cTIiJo	Rock climbing	Participating_in_sports&Exercise&Recreation	Sports, Exercise, and Recreation	Participating in Sports, Exercise, or Recreation	Climbing, spelunking, caving	188	1	True	True	True	True	0.5340400999994017
video_on	action	31	eeg	1	sU1Ame_KrgE	Archery	Participating_in_sports&Exercise&Recreation	Sports, Exercise, and Recreation	Participating in Sports, Exercise, or Recreation	Playing sports	250	1	True	True	True	True	0.8070563000073889
video_on	action	31	eeg	1	jH-wXXXe1Ss	Rafting	Participating_in_sports&Exercise&Recreation	Sports, Exercise, and Recreation	Participating in Sports, Exercise, or Recreation	Boating	353	1	True	True	False	False	0.7165224000054877
video_on	action	31	eeg	1	OG5qtERyiEA	Capoeira	Participating_in_sports&Exercise&Recreation	Sports, Exercise, and Recreation	Participating in Sports, Exercise, or Recreation	Participating in martial arts	294	1	True	True	False	False	0.9744299000012688
video_on	action	31	eeg	1	eOlCr-N7mNo	Getting a haircut	Grooming	Personal Care	Grooming	Washing, dressing and grooming	208	4	True	False	False	True	0.6281192000024021
video_on	action	31	eeg	1	OgASUNE14RI	Spinning	Participating_in_sports&Exercise&Recreation	Sports, Exercise, and Recreation	Participating in Sports, Exercise, or Recreation	Using cardiovascular equipment	117	1	True	True	True	True	0.70114889999968
video_on	action	31	eeg	1	0qz5TLFrzBA	Cutting the grass	Lawn&Garden&Houseplants	Household Activities	Lawn, Garden, and Houseplants	Lawn, garden, and houseplant care	301	9	True	False	False	True	0.5109695999999531
video_on	action	31	eeg	1	-GfQmYk1-ag	Doing step aerobics	Participating_in_sports&Exercise&Recreation	Sports, Exercise, and Recreation	Participating in Sports, Exercise, or Recreation	Doing aerobics	230	1	True	True	True	True	0.6419401000021026
video_on	action	31	eeg	1	ovX_9KJbF3o	Polishing shoes	Housework	Household Activities	Housework	Sewing, repairing, & maintaining textiles	227	6	True	False	False	True	0.6791580999997677
video_on	action	31	eeg	1	ROLfBdCvDZI	Windsurfing	Participating_in_sports&Exercise&Recreation	Sports, Exercise, and Recreation	Participating in Sports, Exercise, or Recreation	Participating in water sports	237	1	True	True	True	True	0.5614368000096874
video_on	action	31	eeg	1	7z3u4gviiP0	Hula hoop	Relaxing&Leisure	Socializing, Relaxing, and Leisure	Relaxing and Leisure	Playing games	322	3	True	False	False	True	0.6038336999918101
video_on	action	31	eeg	1	vR8x35JGozs	Futsal	Participating_in_sports&Exercise&Recreation	Sports, Exercise, and Recreation	Participating in Sports, Exercise, or Recreation	Playing soccer	315	1	True	True	True	True	0.5246251999924425
video_on	action	31	eeg	1	PpqpXzWivV8	Wakeboarding	Participating_in_sports&Exercise&Recreation	Sports, Exercise, and Recreation	Participating in Sports, Exercise, or Recreation	Participating in water sports	385	1	True	True	True	True	0.5508655999874463
video_on	action	31	eeg	1	jzL9kTMIFYE	Playing lacrosse	Participating_in_sports&Exercise&Recreation	Sports, Exercise, and Recreation	Participating in Sports, Exercise, or Recreation	Playing racquet sports	209	1	True	True	True	True	0.7012727999972412
video_on	action	31	eeg	1	8qRPFK8BzgM	Springboard diving	Participating_in_sports&Exercise&Recreation	Sports, Exercise, and Recreation	Participating in Sports, Exercise, or Recreation	Participating in water sports	193	1	True	True	True	True	0.833281100000022
video_on	action	31	eeg	1	x5H7oJGWka4	Walking the dog	Animals&Pets	Household Activities	Animals and Pets	Walking / exercising / playing with animals	221	8	True	False	False	True	0.963762700004736
video_on	action	31	eeg	1	ioOrV7iBffo	Longboarding	Participating_in_sports&Exercise&Recreation	Sports, Exercise, and Recreation	Participating in Sports, Exercise, or Recreation	Playing sports	331	1	True	True	False	False	0.8443123000033665
video_on	action	31	eeg	1	sAi3KfErqjY	Horseback riding	Participating_in_sports&Exercise&Recreation	Sports, Exercise, and Recreation	Participating in Sports, Exercise, or Recreation	Participating in equestrian sports	175	1	False	True	False	False	0.0
video_on	action	31	eeg	1	E1elkrqtYcw	Skiing	Participating_in_sports&Exercise&Recreation	Sports, Exercise, and Recreation	Participating in Sports, Exercise, or Recreation	Skiing, ice skating, snowboarding	369	1	True	True	False	False	0.0050692000077106
video_on	action	31	eeg	1	4XS8QV2a-K4	Grooming dog	Animals&Pets	Household Activities	Animals and Pets	Care for animals and pets (not veterinary care)	317	8	True	False	False	True	0.7312105000019073
video_on	action	31	eeg	1	IH7kQ_9l1EA	Rollerblading	Participating_in_sports&Exercise&Recreation	Sports, Exercise, and Recreation	Participating in Sports, Exercise, or Recreation	Playing sports	359	1	True	True	False	False	0.6863863000035053
video_on	action	31	eeg	1	BW4lfwGMz3s	Starting a campfire	Participating_in_sports&Exercise&Recreation	Sports, Exercise, and Recreation	Participating in Sports, Exercise, or Recreation	Playing sports	153	1	True	True	False	False	0.846357700007502
video_on	action	31	eeg	1	WGwl0br69QQ	Surfing	Participating_in_sports&Exercise&Recreation	Sports, Exercise, and Recreation	Participating in Sports, Exercise, or Recreation	Participating in water sports	376	1	True	True	True	True	0.5793781999964267
video_on	action	31	eeg	1	tGJEmmMCW7w	Kite flying	Relaxing&Leisure	Socializing, Relaxing, and Leisure	Relaxing and Leisure	Playing games	327	3	True	False	False	True	0.9885971999901813
video_on	action	31	eeg	1	3zts0SDowkQ	Using parallel bars	Participating_in_sports&Exercise&Recreation	Sports, Exercise, and Recreation	Participating in Sports, Exercise, or Recreation	Doing gymnastics	88	1	True	True	True	True	0.8240367000107653
video_on	action	31	eeg	1	kxITnEYbV58	Paintball	Participating_in_sports&Exercise&Recreation	Sports, Exercise, and Recreation	Participating in Sports, Exercise, or Recreation	Playing sports	141	1	True	True	False	False	0.793957899993984
video_on	action	31	eeg	1	RRwhhukWvW0	Waterskiing	Participating_in_sports&Exercise&Recreation	Sports, Exercise, and Recreation	Participating in Sports, Exercise, or Recreation	Participating in water sports	386	1	True	True	True	True	0.4815381999942474
video_on	action	31	eeg	1	2gbQ12DRgrI	Fun sliding down	Arts&Entertainment	Socializing, Relaxing, and Leisure	Arts and Entertainment	Park activities	313	2	True	False	False	True	0.4928026999987196
video_on	action	31	eeg	1	m4SDfYNFkDU	Swimming	Participating_in_sports&Exercise&Recreation	Sports, Exercise, and Recreation	Participating in Sports, Exercise, or Recreation	Participating in water sports	377	1	True	True	True	True	0.6405746999953408
video_on	action	31	eeg	1	TDsDkFy3hSk	Getting a tattoo	Grooming	Personal Care	Grooming	Washing, dressing and grooming	187	4	True	False	False	True	0.5931337000074564
video_on	action	31	eeg	1	wWcB84Gn1lU	Playing guitarra	Arts&Entertainment	Socializing, Relaxing, and Leisure	Arts and Entertainment	Playing musical instruments	251	2	True	False	False	True	0.6774118000030285
video_on	action	31	eeg	1	_wJ6Dd1Xpr0	Painting furniture	Interior_maintenance&Repair&Decoration	Household Activities	Interior Maintenance, Repair, & Decoration	Building and repairing furniture	337	7	True	False	False	True	0.7782255999918561
video_on	action	31	eeg	1	vS9WL2xJYTI	Using uneven bars	Participating_in_sports&Exercise&Recreation	Sports, Exercise, and Recreation	Participating in Sports, Exercise, or Recreation	Doing gymnastics	192	1	True	True	True	True	0.565348800009815
video_on	action	31	eeg	1	hRVN6o4_QMU	Welding	Appliances&Tools&Toys	Household Activities	Appliances, Tools, and Toys	Appliance, tool, and toy set-up, repair, & maintenance (by self)	388	10	True	False	False	True	0.7359408000047551
video_on	action	31	eeg	1	BcER5h9ymj0	Using the monkey bar	Arts&Entertainment	Socializing, Relaxing, and Leisure	Arts and Entertainment	Park activities	383	2	True	False	False	True	0.7192196000105469
video_on	action	31	eeg	1	OjAXo2qHkbQ	Javelin throw	Participating_in_sports&Exercise&Recreation	Sports, Exercise, and Recreation	Participating in Sports, Exercise, or Recreation	Playing sports	116	1	True	True	True	True	0.7194450999959372
video_on	action	31	eeg	1	XN29sameYXM	Zumba	Participating_in_sports&Exercise&Recreation	Sports, Exercise, and Recreation	Participating in Sports, Exercise, or Recreation	Doing aerobics	69	1	True	True	False	False	0.6104074000031687
video_on	action	31	eeg	1	z7mX9dfY5rU	Putting on shoes	Grooming	Personal Care	Grooming	Washing, dressing and grooming oneself	352	4	True	False	False	True	0.5054466000001412
video_on	action	31	eeg	1	SlhlapnTFK0	Knitting	Housework	Household Activities	Housework	Sewing, repairing, & maintaining textiles	329	6	True	False	False	True	0.9586935000115772
video_on	action	31	eeg	1	2qidZaAV-pA	Raking leaves	Lawn&Garden&Houseplants	Household Activities	Lawn, Garden, and Houseplants	Lawn, garden, and houseplant care	354	9	True	False	False	True	0.5954041000077268
video_on	action	31	eeg	1	5bFPyL-vzyI	Polishing forniture	Housework	Household Activities	Housework	Interior cleaning	156	6	True	False	False	True	0.8121935999952257
video_on	action	31	eeg	1	vlwOSDuiKQA	Playing squash	Participating_in_sports&Exercise&Recreation	Sports, Exercise, and Recreation	Participating in Sports, Exercise, or Recreation	Playing racquet sports	194	1	True	True	True	True	0.5479599999962375
video_on	action	31	eeg	1	1kMSBLLHhUc	Playing kickball	Participating_in_sports&Exercise&Recreation	Sports, Exercise, and Recreation	Participating in Sports, Exercise, or Recreation	Playing sports	257	1	True	True	True	True	0.8708523000095738
video_on	action	31	eeg	1	j4I5yO-kw38	Making a cake	Food&Drink_prep.&Presentation&Clean-up	Eating and drinking Activities	Food & Drink Prep., Presentation, & Clean-up	Food and drink preparation	332	5	True	False	False	True	0.6131832000100985
video_on	action	31	eeg	1	s18taweDa5U	Preparing salad	Food&Drink_prep.&Presentation&Clean-up	Eating and drinking Activities	Food & Drink Prep., Presentation, & Clean-up	Food and drink preparation	96	5	True	False	False	True	0.5666116999927908
video_on	action	31	eeg	1	qDd3o8GwmDE	Swinging at the playground	Arts&Entertainment	Socializing, Relaxing, and Leisure	Arts and Entertainment	Park activities	378	2	True	False	False	True	0.5883824000047753
video_on	action	31	eeg	1	i6PUU-326bo	Playing accordion	Arts&Entertainment	Socializing, Relaxing, and Leisure	Arts and Entertainment	Playing musical instruments	267	2	True	False	False	True	0.6241690999886487
video_on	action	31	eeg	1	6ym7S5kpXAI	Brushing teeth	Grooming	Personal Care	Grooming	Washing, dressing and grooming oneself	148	4	True	False	False	True	0.5166705000010552
video_on	action	31	eeg	1	d-7WyOtqS54	Playing congas	Arts&Entertainment	Socializing, Relaxing, and Leisure	Arts and Entertainment	Playing musical instruments	345	2	True	False	False	True	0.824841199995717
video_on	action	31	eeg	1	LBI9poRsjoo	Doing motocross	Participating_in_sports&Exercise&Recreation	Sports, Exercise, and Recreation	Participating in Sports, Exercise, or Recreation	Playing sports	243	1	True	True	True	True	0.8223326000006637
video_on	action	31	eeg	1	r6DGtU2UZEE	Waxing skis	Appliances&Tools&Toys	Household Activities	Appliances, Tools, and Toys	Appliance, tool, and toy set-up, repair, & maintenance (by self)	387	10	True	False	False	True	0.6733636999997543
video_on	action	31	eeg	1	ipBVD13e-tE	Washing hands	Grooming	Personal Care	Grooming	Washing, dressing and grooming oneself	173	4	True	False	False	True	0.6900772999943001
video_on	action	31	eeg	1	AjzvDVo1kNo	Volleyball	Participating_in_sports&Exercise&Recreation	Sports, Exercise, and Recreation	Participating in Sports, Exercise, or Recreation	Playing volleyball	123	1	True	True	True	True	0.5730280999996467
video_on	action	31	eeg	1	an_U8ouGc38	Mowing the lawn	Lawn&Garden&Houseplants	Household Activities	Lawn, Garden, and Houseplants	Lawn, garden, and houseplant care	218	9	True	False	False	True	0.6093001999979606
video_on	action	31	eeg	1	1odxTax6FZY	Vacuuming floor	Housework	Household Activities	Housework	Interior cleaning	160	6	True	False	False	True	0.7539242999919225
video_on	action	31	eeg	1	v6n5zxPCyg4	Sumo	Participating_in_sports&Exercise&Recreation	Sports, Exercise, and Recreation	Participating in Sports, Exercise, or Recreation	Wrestling	375	1	True	True	True	True	0.6243312000005972
video_on	action	31	eeg	1	04snnp_b-Lw	Making a lemonade	Food&Drink_prep.&Presentation&Clean-up	Eating and drinking Activities	Food & Drink Prep., Presentation, & Clean-up	Food and drink preparation	333	5	True	False	False	True	0.6315145999978995
video_on	action	31	eeg	1	fSdhy1Dti68	Kayaking	Participating_in_sports&Exercise&Recreation	Sports, Exercise, and Recreation	Participating in Sports, Exercise, or Recreation	Participating in water sports	254	1	True	True	True	True	0.5898553000006359
video_on	action	31	eeg	1	HCwaOZQoI9o	Canoeing	Participating_in_sports&Exercise&Recreation	Sports, Exercise, and Recreation	Participating in Sports, Exercise, or Recreation	Boating	292	1	True	True	True	True	0.6334640000131913
video_on	action	31	eeg	1	IklkIbytnvY	Camel ride	Participating_in_sports&Exercise&Recreation	Sports, Exercise, and Recreation	Participating in Sports, Exercise, or Recreation	Playing sports	291	1	True	True	False	False	0.4662409999873489
video_on	action	31	eeg	1	al9tiNnXADs	Elliptical trainer	Participating_in_sports&Exercise&Recreation	Sports, Exercise, and Recreation	Participating in Sports, Exercise, or Recreation	Using cardiovascular equipment	308	1	False	True	False	False	0.0
video_on	action	31	eeg	1	fHy5Z_ctQjw	Cheerleading	Arts&Entertainment	Socializing, Relaxing, and Leisure	Arts and Entertainment	Dancing	140	2	True	False	False	True	0.0050774999981513
video_on	action	31	eeg	1	e6Ecdb9gEKU	Cleaning windows	Housework	Household Activities	Housework	Interior cleaning	143	6	True	False	False	True	0.5634752000041772
video_on	action	31	eeg	1	1Dt6Kru-E5Q	Trimming branches or hedges	Lawn&Garden&Houseplants	Household Activities	Lawn, Garden, and Houseplants	Lawn, garden, and houseplant care	381	9	True	False	False	True	0.6340665000025183
video_on	action	31	eeg	1	yWZDKIkQoOE	Decorating the Christmas tree	Interior_maintenance&Repair&Decoration	Household Activities	Interior Maintenance, Repair, & Decoration	Interior arrangement, decoration, & repairs	302	7	True	False	False	True	0.5500025999936042
video_on	action	31	eeg	1	tVWTHMcIqgc	Long jump	Participating_in_sports&Exercise&Recreation	Sports, Exercise, and Recreation	Participating in Sports, Exercise, or Recreation	Playing sports	80	1	True	True	True	True	0.4695250999939162
video_on	action	31	eeg	1	oKPXqQU5URc	Carving jack-o-lanterns	Interior_maintenance&Repair&Decoration	Household Activities	Interior Maintenance, Repair, & Decoration	Interior arrangement, decoration, & repairs	295	7	True	False	False	True	0.6184122999984538
video_on	action	31	eeg	1	5V_FSbLp4vw	Clean and jerk	Participating_in_sports&Exercise&Recreation	Sports, Exercise, and Recreation	Participating in Sports, Exercise, or Recreation	Weightlifting	84	1	True	True	True	True	0.6385625000111759
video_on	action	31	eeg	1	bXu9GUOM9hY	Tug of war	Relaxing&Leisure	Socializing, Relaxing, and Leisure	Relaxing and Leisure	Playing games	382	3	True	False	True	False	0.6545392999978503
video_on	action	31	eeg	1	jUOfZum7HFo	Making a sandwich	Food&Drink_prep.&Presentation&Clean-up	Eating and drinking Activities	Food & Drink Prep., Presentation, & Clean-up	Food and drink preparation	129	5	True	False	False	True	0.7976650999917183
video_on	action	31	eeg	1	zHmBIYpnaI4	Doing fencing	Participating_in_sports&Exercise&Recreation	Sports, Exercise, and Recreation	Participating in Sports, Exercise, or Recreation	Fencing	309	1	True	True	True	True	0.7972484999918379
video_on	action	31	eeg	1	imk-rbzv7do	Ballet	Arts&Entertainment	Socializing, Relaxing, and Leisure	Arts and Entertainment	Attending arts and entertainment	229	2	True	False	False	True	0.6206682000047294
video_on	action	31	eeg	1	0-XTVYTSCME	Mooping floor	Housework	Household Activities	Housework	Interior cleaning	335	6	True	False	False	True	0.6296268000005512
video_on	action	31	eeg	1	L8cgYGVdlLw	Brushing hair	Grooming	Personal Care	Grooming	Washing, dressing and grooming oneself	125	4	True	False	False	True	0.6148351000010734
video_on	action	31	eeg	1	Id6xFZbNjew	Plastering	Interior_maintenance&Repair&Decoration	Household Activities	Interior Maintenance, Repair, & Decoration	Interior arrangement, decoration, & repairs	340	7	True	False	False	True	0.5290707000094699
video_on	action	31	eeg	1	cOR606Q7b0c	Playing flauta	Arts&Entertainment	Socializing, Relaxing, and Leisure	Arts and Entertainment	Playing musical instruments	149	2	True	False	False	True	0.461457799989148
video_on	action	31	eeg	1	9xOy9BSLjbg	Laying tile	Interior_maintenance&Repair&Decoration	Household Activities	Interior Maintenance, Repair, & Decoration	Interior arrangement, decoration, & repairs	330	7	False	False	False	True	0.0
video_on	action	31	eeg	2	-sVVFmOcfc0	Using the rowing machine	Participating_in_sports&Exercise&Recreation	Sports, Exercise, and Recreation	Participating in Sports, Exercise, or Recreation	Using cardiovascular equipment	384	1	True	True	True	True	0.645282400000724
video_on	action	31	eeg	2	GCg92F3aFFo	Snatch	Participating_in_sports&Exercise&Recreation	Sports, Exercise, and Recreation	Participating in Sports, Exercise, or Recreation	Weightlifting	79	1	True	True	True	True	0.6242636999959359
video_on	action	31	eeg	2	IhY3Xp1Y66g	Playing bagpipes	Arts&Entertainment	Socializing, Relaxing, and Leisure	Arts and Entertainment	Playing musical instruments	136	2	True	False	False	True	0.7567464999883668
video_on	action	31	eeg	2	PjZQbojhi-4	Hopscotch	Relaxing&Leisure	Socializing, Relaxing, and Leisure	Relaxing and Leisure	Playing games	241	3	True	False	True	False	0.6497979999985546
video_on	action	31	eeg	2	5iFvKdJHdZI	Arm wrestling	Participating_in_sports&Exercise&Recreation	Sports, Exercise, and Recreation	Participating in Sports, Exercise, or Recreation	Wrestling	271	1	True	True	False	False	0.738030799999251
video_on	action	31	eeg	2	WETz0dn22-M	BMX	Participating_in_sports&Exercise&Recreation	Sports, Exercise, and Recreation	Participating in Sports, Exercise, or Recreation	Biking	274	1	True	True	True	True	0.0051003999979002
video_on	action	31	eeg	2	a9_KFunlfe4	High jump	Participating_in_sports&Exercise&Recreation	Sports, Exercise, and Recreation	Participating in Sports, Exercise, or Recreation	Playing sports	195	1	True	True	True	True	0.5275205000070855
video_on	action	31	eeg	2	q4x1u_o4Jsw	Bathing dog	Animals&Pets	Household Activities	Animals and Pets	Care for animals and pets (not veterinary care)	90	8	True	False	False	True	0.4588833000016166
video_on	action	31	eeg	2	gnjxGPx8H2o	Using the pommel horse	Participating_in_sports&Exercise&Recreation	Sports, Exercise, and Recreation	Participating in Sports, Exercise, or Recreation	Doing gymnastics	114	1	True	True	True	True	0.568236800012528
video_on	action	31	eeg	2	JOUW7CUuohM	Spread mulch	Lawn&Garden&Houseplants	Household Activities	Lawn, Garden, and Houseplants	Lawn, garden, and houseplant care	374	9	True	False	False	True	0.5487839999987045
video_on	action	31	eeg	2	sX1nvBsJWoI	Beach soccer	Participating_in_sports&Exercise&Recreation	Sports, Exercise, and Recreation	Participating in Sports, Exercise, or Recreation	Playing soccer	278	1	True	True	True	True	0.5527293999912217
video_on	action	31	eeg	2	KjTjW-FQi-8	Putting on makeup	Grooming	Personal Care	Grooming	Washing, dressing and grooming oneself	76	4	True	False	False	True	0.5659511000121711
video_on	action	31	eeg	2	Dr8CR31RIkk	Playing harmonica	Arts&Entertainment	Socializing, Relaxing, and Leisure	Arts and Entertainment	Playing musical instruments	100	2	True	False	False	True	0.611752400000114
video_on	action	31	eeg	2	_xP9Uw2IXDQ	Belly dance	Arts&Entertainment	Socializing, Relaxing, and Leisure	Arts and Entertainment	Dancing	247	2	True	False	False	True	0.5581134999956703
video_on	action	31	eeg	2	oBidB2VXUww	Breakdancing	Arts&Entertainment	Socializing, Relaxing, and Leisure	Arts and Entertainment	Dancing	236	2	True	False	False	True	0.6014639000059105
video_on	action	31	eeg	2	WNE2RynEBTI	Doing nails	Grooming	Personal Care	Grooming	Washing, dressing and grooming oneself	167	4	True	False	False	True	0.8496594000025652
video_on	action	31	eeg	2	DhT2Af7W3f0	Tai chi	Participating_in_sports&Exercise&Recreation	Sports, Exercise, and Recreation	Participating in Sports, Exercise, or Recreation	Participating in martial arts	263	1	True	True	True	True	0.7085269999952288
video_on	action	31	eeg	2	OjUHS0EPF7U	Having an ice cream	Food&Drink_prep.&Presentation&Clean-up	Eating and drinking Activities	Food & Drink Prep., Presentation, & Clean-up	Eating and Drinking	320	5	True	False	False	True	0.6315812999964692
video_on	action	31	eeg	2	jCyrQzXK4eI	Painting fence	Exterior_maintenance&Repair&Decoration	Household Activities	Exterior Maintenance, Repair, & Decoration	Painting fence	336	12	True	False	False	True	0.5637109999952372
video_on	action	31	eeg	2	CSiCX623Md4	Plataform diving	Participating_in_sports&Exercise&Recreation	Sports, Exercise, and Recreation	Participating in Sports, Exercise, or Recreation	Participating in water sports	233	1	True	True	True	True	0.6804427999886684
video_on	action	31	eeg	2	ax4u0mxxViY	Sharpening knives	Appliances&Tools&Toys	Household Activities	Appliances, Tools, and Toys	Appliance, tool, and toy set-up, repair, & maintenance (by self)	365	10	True	False	False	True	0.6893362000118941
video_on	action	31	eeg	2	Vv7Va7Rk2Gs	Table soccer	Relaxing&Leisure	Socializing, Relaxing, and Leisure	Relaxing and Leisure	Playing games	379	3	True	False	False	True	0.7653588999964995
video_on	action	31	eeg	2	-A2JhLhVNyg	Smoking a cigarette	Relaxing&Leisure	Socializing, Relaxing, and Leisure	Relaxing and Leisure	Tobacco and drug use	201	3	True	False	False	True	0.5267022000043653
video_on	action	31	eeg	2	2eq4LJgNZgo	Shuffleboard	Relaxing&Leisure	Socializing, Relaxing, and Leisure	Relaxing and Leisure	Playing games	368	3	True	False	False	True	0.6445662000041921
video_on	action	31	eeg	2	f7oNL3QUxx4	Sailing	Participating_in_sports&Exercise&Recreation	Sports, Exercise, and Recreation	Participating in Sports, Exercise, or Recreation	Participating in water sports	240	1	True	True	True	True	0.7295102999923984
video_on	action	31	eeg	2	QXW4thtyMCY	Calf roping	Participating_in_sports&Exercise&Recreation	Sports, Exercise, and Recreation	Participating in Sports, Exercise, or Recreation	Participating in rodeo competitions	290	1	True	True	True	True	0.6239943999971729
video_on	action	31	eeg	2	8pAgyAMKJNw	Riding bumper cars	Relaxing&Leisure	Socializing, Relaxing, and Leisure	Relaxing and Leisure	Playing games	356	3	True	False	False	True	0.6908276999893133
video_on	action	31	eeg	2	GqwWbeq9flw	Kneeling	Participating_in_sports&Exercise&Recreation	Sports, Exercise, and Recreation	Participating in Sports, Exercise, or Recreation	Working out	328	1	True	True	False	False	0.5639545000012731
video_on	action	31	eeg	2	U7Ib6zqMJzk	Hitting a pinata	Relaxing&Leisure	Socializing, Relaxing, and Leisure	Relaxing and Leisure	Playing games	321	3	True	False	False	True	0.677051599996048
video_on	action	31	eeg	2	GOMIBdM6N7Q	Drinking coffee	Food&Drink_prep.&Presentation&Clean-up	Eating and drinking Activities	Food & Drink Prep., Presentation, & Clean-up	Eating and Drinking	68	5	True	False	False	True	0.6232337999972515
video_on	action	31	eeg	2	dqpBfYqGyMc	Assembling bicycle	Vehicles	Household Activities	Vehicles	Vehicle repair and maintenance (by self)	273	11	True	False	False	True	0.8960000999941258
video_on	action	31	eeg	2	nSolqlDMfcI	Painting	Interior_maintenance&Repair&Decoration	Household Activities	Interior Maintenance, Repair, & Decoration	Interior arrangement, decoration, & repairs	217	7	True	False	False	True	0.8021925000066403
video_on	action	31	eeg	2	H2NHXMcezJ8	Running a marathon	Participating_in_sports&Exercise&Recreation	Sports, Exercise, and Recreation	Participating in Sports, Exercise, or Recreation	Running	362	1	True	True	True	True	0.5656627999996999
video_on	action	31	eeg	2	thAkJsVxajI	Smoking hookah	Relaxing&Leisure	Socializing, Relaxing, and Leisure	Relaxing and Leisure	Tobacco and drug use	189	3	True	False	False	True	0.5132471999968402
video_on	action	31	eeg	2	BrAgPJSBEs8	Triple jump	Participating_in_sports&Exercise&Recreation	Sports, Exercise, and Recreation	Participating in Sports, Exercise, or Recreation	Playing sports	155	1	True	True	True	True	0.7070094000082463
video_on	action	31	eeg	2	KQJTGK9oCzc	Playing violin	Arts&Entertainment	Socializing, Relaxing, and Leisure	Arts and Entertainment	Playing musical instruments	234	2	True	False	False	True	0.4928460999944946
video_on	action	31	eeg	2	zkuPfhpzddQ	Rope skipping	Participating_in_sports&Exercise&Recreation	Sports, Exercise, and Recreation	Participating in Sports, Exercise, or Recreation	Working out	361	1	True	True	True	True	0.809874900005525
video_on	action	31	eeg	2	TlQGNqz9A7w	Powerbocking	Participating_in_sports&Exercise&Recreation	Sports, Exercise, and Recreation	Participating in Sports, Exercise, or Recreation	Playing sports	350	1	True	True	False	False	0.5840938999899663
video_on	action	31	eeg	2	x08lOAK7waQ	Cleaning shoes	Housework	Household Activities	Housework	Sewing, repairing, & maintaining textiles	134	6	True	False	False	True	0.6391570999985561
video_on	action	31	eeg	2	vlZlxR88D0E	Pole vault	Participating_in_sports&Exercise&Recreation	Sports, Exercise, and Recreation	Participating in Sports, Exercise, or Recreation	Playing sports	106	1	True	True	True	True	0.5133380000042962
video_on	action	31	eeg	2	n7QzN0b0iYg	Bungee jumping	Participating_in_sports&Exercise&Recreation	Sports, Exercise, and Recreation	Participating in Sports, Exercise, or Recreation	Playing sports	154	1	True	True	False	False	0.5413270999997621
video_on	action	31	eeg	2	k3ce10-uNfs	Baton twirling	Participating_in_sports&Exercise&Recreation	Sports, Exercise, and Recreation	Participating in Sports, Exercise, or Recreation	Playing sports	277	1	True	True	False	False	0.5445565000118222
video_on	action	31	eeg	2	xQ5O9No-xbQ	Shot put	Participating_in_sports&Exercise&Recreation	Sports, Exercise, and Recreation	Participating in Sports, Exercise, or Recreation	Playing sports	169	1	True	True	True	True	0.7164522999955807
video_on	action	31	eeg	2	T_nYYDwtQlQ	Fixing bicycle	Vehicles	Household Activities	Vehicles	Vehicle repair and maintenance (by self)	171	11	True	False	False	True	0.8626949000026798
video_on	action	31	eeg	2	nNF-bXW7J9o	Rock-paper-scissors	Relaxing&Leisure	Socializing, Relaxing, and Leisure	Relaxing and Leisure	Playing games	358	3	True	False	False	True	0.6566445999924326
video_on	action	31	eeg	2	6_Ip8xANvXE	Baking cookies	Food&Drink_prep.&Presentation&Clean-up	Eating and drinking Activities	Food & Drink Prep., Presentation, & Clean-up	Food and drink preparation	276	5	True	False	False	True	0.5080850000085775
video_on	action	31	eeg	2	Pps0tNe2B_c	Building sandcastles	Arts&Entertainment	Socializing, Relaxing, and Leisure	Arts and Entertainment	Beach activities	286	2	True	False	False	True	0.6745037999935448
video_on	action	31	eeg	2	ddcezLuxbJM	Shoveling snow	Exterior_maintenance&Repair&Decoration	Household Activities	Exterior Maintenance, Repair, & Decoration	Exterior cleaning	183	12	True	False	False	True	0.6192305999866221
video_on	action	31	eeg	2	M4JwpdCte60	Wrapping presents	Household_management	Household Activities	Household Management	Household & personal organization and planning	179	13	True	False	False	True	0.6438975000055507
video_on	action	31	eeg	2	vFDBonnRDIA	Washing dishes	Food&Drink_prep.&Presentation&Clean-up	Eating and drinking Activities	Food & Drink Prep., Presentation, & Clean-up	Kitchen and food clean-up	213	5	True	False	False	True	0.6019564000016544
video_on	action	31	eeg	2	8IodgEV9og4	Playing water polo	Participating_in_sports&Exercise&Recreation	Sports, Exercise, and Recreation	Participating in Sports, Exercise, or Recreation	Participating in water sports	130	1	True	True	True	True	0.5051723000069614
video_on	action	31	eeg	2	CcrOFyuzcCI	Playing racquetball	Participating_in_sports&Exercise&Recreation	Sports, Exercise, and Recreation	Participating in Sports, Exercise, or Recreation	Playing racquet sports	253	1	True	True	True	True	0.6363206000096397
video_on	action	31	eeg	2	ouoU-CKLWTY	Playing rubik cube	Relaxing&Leisure	Socializing, Relaxing, and Leisure	Relaxing and Leisure	Playing games	349	3	True	False	False	True	0.5469182999950135
video_on	action	31	eeg	2	84jg1lUxOnQ	Braiding hair	Grooming	Personal Care	Grooming	Washing, dressing and grooming oneself	285	4	True	False	False	True	0.755623299992294
video_on	action	31	eeg	2	zT6UrZxgD0k	Fixing the roof	Exterior_maintenance&Repair&Decoration	Household Activities	Exterior Maintenance, Repair, & Decoration	Exterior repair, improvements, & decoration	311	12	True	False	False	True	0.644595699995989
video_on	action	31	eeg	2	0L5iwFX1Eqg	Doing crunches	Participating_in_sports&Exercise&Recreation	Sports, Exercise, and Recreation	Participating in Sports, Exercise, or Recreation	Working out	305	1	True	True	False	False	0.5521624000102747
video_on	action	31	eeg	2	4uzB7Hi3icw	Beer pong	Relaxing&Leisure	Socializing, Relaxing, and Leisure	Relaxing and Leisure	Playing games	280	3	True	False	False	True	0.5628305999998702
video_on	action	31	eeg	2	ixiqyXKyeIw	Slacklining	Relaxing&Leisure	Socializing, Relaxing, and Leisure	Relaxing and Leisure	Playing games	371	3	True	False	False	True	0.5296396000048844
video_on	action	31	eeg	2	bT0Wp9LO4v4	Playing pool	Relaxing&Leisure	Socializing, Relaxing, and Leisure	Relaxing and Leisure	Playing games	348	3	True	False	False	True	0.8574700000026496
video_on	action	31	eeg	2	pcHAFjT2N2o	Chopping wood	Interior_maintenance&Repair&Decoration	Household Activities	Interior Maintenance, Repair, & Decoration	Heating and cooling	110	7	True	False	False	True	0.5831279999983963
video_on	action	31	eeg	2	PU6f-DcDngM	Playing polo	Participating_in_sports&Exercise&Recreation	Sports, Exercise, and Recreation	Participating in Sports, Exercise, or Recreation	Participating in equestrian sports	75	1	True	True	True	True	0.6686005000083242
video_on	action	31	eeg	2	yjCjd-NKIVU	Doing karate	Participating_in_sports&Exercise&Recreation	Sports, Exercise, and Recreation	Participating in Sports, Exercise, or Recreation	Participating in martial arts	99	1	True	True	False	False	0.6027785000042059
video_on	action	31	eeg	2	L0PUzJKTIsY	Using the balance beam	Participating_in_sports&Exercise&Recreation	Sports, Exercise, and Recreation	Participating in Sports, Exercise, or Recreation	Doing gymnastics	180	1	True	True	False	False	0.5846214000048349
video_on	action	31	eeg	2	LfbdTVDbiz4	Playing piano	Arts&Entertainment	Socializing, Relaxing, and Leisure	Arts and Entertainment	Playing musical instruments	197	2	True	False	False	True	0.7776808000053279
video_on	action	31	eeg	2	W8azbl6bM44	Doing kickboxing	Participating_in_sports&Exercise&Recreation	Sports, Exercise, and Recreation	Participating in Sports, Exercise, or Recreation	Participating in martial arts	70	1	True	True	True	True	0.5199938000005204
video_on	action	31	eeg	2	4pJzf5X-wVQ	Playing badminton	Participating_in_sports&Exercise&Recreation	Sports, Exercise, and Recreation	Participating in Sports, Exercise, or Recreation	Playing racquet sports	268	1	True	True	False	False	0.6497568999911891
video_on	action	31	eeg	2	wJsL_CYZWd4	Ping-pong	Participating_in_sports&Exercise&Recreation	Sports, Exercise, and Recreation	Participating in Sports, Exercise, or Recreation	Playing racquet sports	119	1	True	True	True	True	0.7522782999876654
video_on	action	31	eeg	2	IV8NHVnBIJE	Hurling	Participating_in_sports&Exercise&Recreation	Sports, Exercise, and Recreation	Participating in Sports, Exercise, or Recreation	Playing sports	323	1	True	True	True	True	0.6040758000017377
video_on	action	31	eeg	2	5hO7ACaQX6g	Hand car wash	Vehicles	Household Activities	Vehicles	Vehicle repair and maintenance (by self)	318	11	True	False	False	True	0.8362330999952974
video_on	action	31	eeg	2	X35JFHJw12k	Cricket	Participating_in_sports&Exercise&Recreation	Sports, Exercise, and Recreation	Participating in Sports, Exercise, or Recreation	Playing sports	82	1	True	True	True	True	0.6752159000025131
video_on	action	31	eeg	2	Hf-hGGFnp18	Playing blackjack	Arts&Entertainment	Socializing, Relaxing, and Leisure	Arts and Entertainment	Attending gambling establishments	343	2	True	False	False	True	0.6304224000050453
video_on	action	31	eeg	2	jCv7u9TagmI	Cleaning sink	Interior_maintenance&Repair&Decoration	Household Activities	Interior Maintenance, Repair, & Decoration	Interior arrangement, decoration, & repairs	297	7	True	False	False	True	0.704263899999205
video_on	action	31	eeg	2	z0pu-ePdu5A	Ironing clothes	Housework	Household Activities	Housework	Laundry	83	6	True	False	False	True	0.5758169000037014
video_on	action	31	eeg	2	XLDARfMZA0o	Playing beach volleyball	Participating_in_sports&Exercise&Recreation	Sports, Exercise, and Recreation	Participating in Sports, Exercise, or Recreation	Playing volleyball	341	1	True	True	True	True	0.5768200000020443
video_on	action	31	eeg	2	o47JoJ8DqXE	Dodgeball	Participating_in_sports&Exercise&Recreation	Sports, Exercise, and Recreation	Participating in Sports, Exercise, or Recreation	Playing sports	161	1	True	True	False	False	0.581500899992534
video_on	action	31	eeg	2	aWXAf70hmuc	Bullfighting	Participating_in_sports&Exercise&Recreation	Sports, Exercise, and Recreation	Participating in Sports, Exercise, or Recreation	Participating in rodeo competitions	288	1	True	True	True	True	0.5915022999979556
video_on	action	31	eeg	2	i6V0qhVzHIc	Blow-drying hair	Grooming	Personal Care	Grooming	Washing, dressing and grooming oneself	281	4	False	False	False	True	0.0
video_on	action	31	eeg	2	Crf9YWumhUE	Scuba diving	Participating_in_sports&Exercise&Recreation	Sports, Exercise, and Recreation	Participating in Sports, Exercise, or Recreation	Participating in water sports	364	1	True	True	False	False	0.0051920999976573
video_on	action	31	eeg	2	lMbZ8SDI9ww	Hanging wallpaper	Interior_maintenance&Repair&Decoration	Household Activities	Interior Maintenance, Repair, & Decoration	Interior arrangement, decoration, & repairs	319	7	True	False	False	True	0.5666791999974521
video_on	action	31	eeg	2	b9l3qyIGil4	Shaving	Grooming	Personal Care	Grooming	Washing, dressing and grooming oneself	190	4	True	False	False	True	0.5098489999945741
video_on	action	31	eeg	2	fNlWNq-uuzk	Hand washing clothes	Housework	Household Activities	Housework	Laundry	232	6	True	False	False	True	0.5306753000040771
video_on	action	31	eeg	2	CsTxWuLki7A	Tango	Arts&Entertainment	Socializing, Relaxing, and Leisure	Arts and Entertainment	Dancing	73	2	True	False	False	True	0.4979899999889312
video_on	action	31	eeg	2	tKrLSmLAsKk	Snow tubing	Participating_in_sports&Exercise&Recreation	Sports, Exercise, and Recreation	Participating in Sports, Exercise, or Recreation	Skiing, ice skating, snowboarding	372	1	True	True	False	False	0.5625337999954354
video_on	action	31	eeg	2	102fxsN7fQI	Skateboarding	Participating_in_sports&Exercise&Recreation	Sports, Exercise, and Recreation	Participating in Sports, Exercise, or Recreation	Playing sports	176	1	True	True	False	False	0.7919092000083765
video_on	action	31	eeg	2	6EpLw5apt1I	Putting in contact lenses	Grooming	Personal Care	Grooming	Washing, dressing and grooming oneself	351	4	True	False	False	True	0.5939108000020497
video_on	action	31	eeg	2	iuiTfXIW_5Q	Croquet	Participating_in_sports&Exercise&Recreation	Sports, Exercise, and Recreation	Participating in Sports, Exercise, or Recreation	Playing sports	299	1	True	True	False	False	0.6526464000053238
video_on	action	31	eeg	2	Z9fu_ImKiCc	Playing drums	Arts&Entertainment	Socializing, Relaxing, and Leisure	Arts and Entertainment	Playing musical instruments	346	2	True	False	False	True	0.6862036000093212
video_on	action	31	eeg	2	XFY8bMned6I	Playing saxophone	Arts&Entertainment	Socializing, Relaxing, and Leisure	Arts and Entertainment	Playing musical instruments	109	2	True	False	False	True	0.4863713000086136
video_on	action	31	eeg	2	f_0utB0nQPc	Playing ice hockey	Participating_in_sports&Exercise&Recreation	Sports, Exercise, and Recreation	Participating in Sports, Exercise, or Recreation	Playing hockey	347	1	True	True	True	True	0.7235693000111496
video_on	action	31	eeg	2	DwqYfZZ-Nyc	Making an omelette	Food&Drink_prep.&Presentation&Clean-up	Eating and drinking Activities	Food & Drink Prep., Presentation, & Clean-up	Food and drink preparation	334	5	False	False	False	True	0.0
video_on	action	31	eeg	3	EiBSNUCun_s	Playing rubik cube	Relaxing&Leisure	Socializing, Relaxing, and Leisure	Relaxing and Leisure	Playing games	349	3	True	False	False	True	0.5256044999987353
video_on	action	31	eeg	3	MB43fYj8fgI	Doing karate	Participating_in_sports&Exercise&Recreation	Sports, Exercise, and Recreation	Participating in Sports, Exercise, or Recreation	Participating in martial arts	99	1	True	True	True	True	0.641743400003179
video_on	action	31	eeg	3	c8mfB7R7gtg	Tumbling	Participating_in_sports&Exercise&Recreation	Sports, Exercise, and Recreation	Participating in Sports, Exercise, or Recreation	Doing gymnastics	258	1	True	True	True	True	0.6443025000044145
video_on	action	31	eeg	3	cfPn8DBKqAc	Camel ride	Participating_in_sports&Exercise&Recreation	Sports, Exercise, and Recreation	Participating in Sports, Exercise, or Recreation	Playing sports	291	1	True	True	False	False	0.599912800011225
video_on	action	31	eeg	3	HnEvJUr8DEM	Playing kickball	Participating_in_sports&Exercise&Recreation	Sports, Exercise, and Recreation	Participating in Sports, Exercise, or Recreation	Playing sports	257	1	True	True	True	True	0.7048084999987623
video_on	action	31	eeg	3	pCrZuxZGL8w	Hopscotch	Relaxing&Leisure	Socializing, Relaxing, and Leisure	Relaxing and Leisure	Playing games	241	3	True	False	False	True	0.4844435999984853
video_on	action	31	eeg	3	Hx9U7vDPMzE	Playing beach volleyball	Participating_in_sports&Exercise&Recreation	Sports, Exercise, and Recreation	Participating in Sports, Exercise, or Recreation	Playing volleyball	341	1	True	True	True	True	0.7259405000077095
video_on	action	31	eeg	3	yZurcwf1RhA	Rollerblading	Participating_in_sports&Exercise&Recreation	Sports, Exercise, and Recreation	Participating in Sports, Exercise, or Recreation	Playing sports	359	1	True	True	True	True	0.6229613000032259
video_on	action	31	eeg	3	fqYH1Sx1RqY	Springboard diving	Participating_in_sports&Exercise&Recreation	Sports, Exercise, and Recreation	Participating in Sports, Exercise, or Recreation	Participating in water sports	193	1	False	True	False	False	0.0
video_on	action	31	eeg	3	F4kQYHqwNDE	Polishing shoes	Housework	Household Activities	Housework	Sewing, repairing, & maintaining textiles	227	6	True	False	False	True	0.0051099999982398
video_on	action	31	eeg	3	VE_Am9eJkL8	Using the rowing machine	Participating_in_sports&Exercise&Recreation	Sports, Exercise, and Recreation	Participating in Sports, Exercise, or Recreation	Using cardiovascular equipment	384	1	True	True	True	True	0.7678022000036435
video_on	action	31	eeg	3	u-wd4zky0BU	Sailing	Participating_in_sports&Exercise&Recreation	Sports, Exercise, and Recreation	Participating in Sports, Exercise, or Recreation	Participating in water sports	240	1	True	True	True	True	0.8478399000014178
video_on	action	31	eeg	3	Nx2N6gbNvdY	Kneeling	Participating_in_sports&Exercise&Recreation	Sports, Exercise, and Recreation	Participating in Sports, Exercise, or Recreation	Working out	328	1	True	True	False	False	0.6899687999975868
video_on	action	31	eeg	3	HZz3lNLcjm4	Shoveling snow	Exterior_maintenance&Repair&Decoration	Household Activities	Exterior Maintenance, Repair, & Decoration	Exterior cleaning	183	12	True	False	False	True	0.6283710999996401
video_on	action	31	eeg	3	mtD7v9AGcYA	Making a sandwich	Food&Drink_prep.&Presentation&Clean-up	Eating and drinking Activities	Food & Drink Prep., Presentation, & Clean-up	Food and drink preparation	129	5	True	False	False	True	0.776180500004557
video_on	action	31	eeg	3	R1qoJbY8_MA	Dodgeball	Participating_in_sports&Exercise&Recreation	Sports, Exercise, and Recreation	Participating in Sports, Exercise, or Recreation	Playing sports	161	1	True	True	False	False	0.4895091000071261
video_on	action	31	eeg	3	HI_lWd3JhII	Waxing skis	Appliances&Tools&Toys	Household Activities	Appliances, Tools, and Toys	Appliance, tool, and toy set-up, repair, & maintenance (by self)	387	10	True	False	False	True	0.8465691000019433
video_on	action	31	eeg	3	vFhkKWZ-oWs	Tai chi	Participating_in_sports&Exercise&Recreation	Sports, Exercise, and Recreation	Participating in Sports, Exercise, or Recreation	Participating in martial arts	263	1	True	True	False	False	0.9644782000104896
video_on	action	31	eeg	3	3PQ8kRU0aFc	Laying tile	Interior_maintenance&Repair&Decoration	Household Activities	Interior Maintenance, Repair, & Decoration	Interior arrangement, decoration, & repairs	330	7	True	False	False	True	0.986092599996482
video_on	action	31	eeg	3	iS7DbeC1EfA	Swimming	Participating_in_sports&Exercise&Recreation	Sports, Exercise, and Recreation	Participating in Sports, Exercise, or Recreation	Participating in water sports	377	1	True	True	False	False	1.0278164999908768
video_on	action	31	eeg	3	sxY5f2m56Yg	Spinning	Participating_in_sports&Exercise&Recreation	Sports, Exercise, and Recreation	Participating in Sports, Exercise, or Recreation	Using cardiovascular equipment	117	1	True	True	True	True	0.1698531000001821
video_on	action	31	eeg	3	3KD-ETDQ7OE	Smoking a cigarette	Relaxing&Leisure	Socializing, Relaxing, and Leisure	Relaxing and Leisure	Tobacco and drug use	201	3	True	False	False	True	0.5554158000013558
video_on	action	31	eeg	3	VWW_xIyrWcQ	Mixing drinks	Food&Drink_prep.&Presentation&Clean-up	Eating and drinking Activities	Food & Drink Prep., Presentation, & Clean-up	Food and drink preparation	244	5	True	False	False	True	0.6034442999953171
video_on	action	31	eeg	3	lrKoflwpAxw	Fixing bicycle	Vehicles	Household Activities	Vehicles	Vehicle repair and maintenance (by self)	171	11	True	False	False	True	0.566305000000284
video_on	action	31	eeg	3	0D-YAystrFw	Mowing the lawn	Lawn&Garden&Houseplants	Household Activities	Lawn, Garden, and Houseplants	Lawn, garden, and houseplant care	218	9	True	False	False	True	0.5599886999989394
video_on	action	31	eeg	3	Flo6L3WJrFg	Hand car wash	Vehicles	Household Activities	Vehicles	Vehicle repair and maintenance (by self)	318	11	True	False	False	True	0.4724167999956989
video_on	action	31	eeg	3	htWc7ORK7BI	Rock climbing	Participating_in_sports&Exercise&Recreation	Sports, Exercise, and Recreation	Participating in Sports, Exercise, or Recreation	Climbing, spelunking, caving	188	1	True	True	True	True	0.4939174000028288
video_on	action	31	eeg	3	SWEWm-DA6uU	Getting a haircut	Grooming	Personal Care	Grooming	Washing, dressing and grooming	208	4	True	False	False	True	0.6338412000040989
video_on	action	31	eeg	3	yeDHjfG36fA	Snatch	Participating_in_sports&Exercise&Recreation	Sports, Exercise, and Recreation	Participating in Sports, Exercise, or Recreation	Weightlifting	79	1	True	True	True	True	0.5828802999894833
video_on	action	31	eeg	3	UZCqWrtuRXI	High jump	Participating_in_sports&Exercise&Recreation	Sports, Exercise, and Recreation	Participating in Sports, Exercise, or Recreation	Playing sports	195	1	True	True	True	True	0.5149899999960326
video_on	action	31	eeg	3	5_OSmkFpgRo	Spread mulch	Lawn&Garden&Houseplants	Household Activities	Lawn, Garden, and Houseplants	Lawn, garden, and houseplant care	374	9	True	False	False	True	0.5115338000032352
video_on	action	31	eeg	3	owfQESeSzKg	Shuffleboard	Relaxing&Leisure	Socializing, Relaxing, and Leisure	Relaxing and Leisure	Playing games	368	3	True	False	False	True	0.5806135000020731
video_on	action	31	eeg	3	II3Y1O1fP90	Snowboarding	Participating_in_sports&Exercise&Recreation	Sports, Exercise, and Recreation	Participating in Sports, Exercise, or Recreation	Skiing, ice skating, snowboarding	373	1	True	True	True	True	0.5637435999960871
video_on	action	31	eeg	3	TP0MbM8wBjs	Playing polo	Participating_in_sports&Exercise&Recreation	Sports, Exercise, and Recreation	Participating in Sports, Exercise, or Recreation	Participating in equestrian sports	75	1	True	True	True	True	0.5945229000062682
video_on	action	31	eeg	3	ks_MXXOPiqw	Playing badminton	Participating_in_sports&Exercise&Recreation	Sports, Exercise, and Recreation	Participating in Sports, Exercise, or Recreation	Playing racquet sports	268	1	True	True	True	True	0.5829317000025185
video_on	action	31	eeg	3	dlP7L5fog1w	Building sandcastles	Arts&Entertainment	Socializing, Relaxing, and Leisure	Arts and Entertainment	Beach activities	286	2	True	False	False	True	0.5385603000031551
video_on	action	31	eeg	3	FByaH3kpjiE	Brushing hair	Grooming	Personal Care	Grooming	Washing, dressing and grooming oneself	125	4	True	False	False	True	0.5377175000030547
video_on	action	31	eeg	3	VzB4HR2YD70	Doing motocross	Participating_in_sports&Exercise&Recreation	Sports, Exercise, and Recreation	Participating in Sports, Exercise, or Recreation	Playing sports	243	1	False	True	False	False	0.0
video_on	action	31	eeg	3	Z2MOdGiYtSk	Cleaning shoes	Housework	Household Activities	Housework	Sewing, repairing, & maintaining textiles	134	6	True	False	False	True	0.0050703000015346
video_on	action	31	eeg	3	VvzTfmV4YzI	Preparing pasta	Food&Drink_prep.&Presentation&Clean-up	Eating and drinking Activities	Food & Drink Prep., Presentation, & Clean-up	Food and drink preparation	186	5	True	False	False	True	0.5140500999987125
video_on	action	31	eeg	3	oZTb0tfnrM0	Zumba	Participating_in_sports&Exercise&Recreation	Sports, Exercise, and Recreation	Participating in Sports, Exercise, or Recreation	Doing aerobics	69	1	True	True	False	False	0.624489599998924
video_on	action	31	eeg	3	B93gpoypfAk	Playing racquetball	Participating_in_sports&Exercise&Recreation	Sports, Exercise, and Recreation	Participating in Sports, Exercise, or Recreation	Playing racquet sports	253	1	True	True	True	True	0.60663840000052
video_on	action	31	eeg	3	LCB78UNdcfo	Skateboarding	Participating_in_sports&Exercise&Recreation	Sports, Exercise, and Recreation	Participating in Sports, Exercise, or Recreation	Playing sports	176	1	True	True	False	False	0.5366842000075849
video_on	action	31	eeg	3	5kOQ4lJVAKI	Starting a campfire	Participating_in_sports&Exercise&Recreation	Sports, Exercise, and Recreation	Participating in Sports, Exercise, or Recreation	Playing sports	153	1	True	True	False	False	0.7214672999980394
video_on	action	31	eeg	3	65yZWs_U2bw	Trimming branches or hedges	Lawn&Garden&Houseplants	Household Activities	Lawn, Garden, and Houseplants	Lawn, garden, and houseplant care	381	9	True	False	False	True	1.179198500001803
video_on	action	31	eeg	3	qW0GD0ZtT2k	Doing fencing	Participating_in_sports&Exercise&Recreation	Sports, Exercise, and Recreation	Participating in Sports, Exercise, or Recreation	Fencing	309	1	True	True	True	True	0.6720569000026444
video_on	action	31	eeg	3	lMh3rDq2Mas	Playing saxophone	Arts&Entertainment	Socializing, Relaxing, and Leisure	Arts and Entertainment	Playing musical instruments	109	2	True	False	False	True	0.6112713000038639
video_on	action	31	eeg	3	P-FuUu4HIlo	Hurling	Participating_in_sports&Exercise&Recreation	Sports, Exercise, and Recreation	Participating in Sports, Exercise, or Recreation	Playing sports	323	1	True	True	True	True	0.5030648999963887
video_on	action	31	eeg	3	3lMklqPHOKQ	Windsurfing	Participating_in_sports&Exercise&Recreation	Sports, Exercise, and Recreation	Participating in Sports, Exercise, or Recreation	Participating in water sports	237	1	True	True	True	True	0.5572359999932814
video_on	action	31	eeg	3	U6aYSKE90Xo	Fixing the roof	Exterior_maintenance&Repair&Decoration	Household Activities	Exterior Maintenance, Repair, & Decoration	Exterior repair, improvements, & decoration	311	12	True	False	False	True	0.5678096000046935
video_on	action	31	eeg	3	jh7jCxgzOYI	Elliptical trainer	Participating_in_sports&Exercise&Recreation	Sports, Exercise, and Recreation	Participating in Sports, Exercise, or Recreation	Using cardiovascular equipment	308	1	True	True	False	False	0.5376469999901019
video_on	action	31	eeg	3	b55dcJ8T94Y	Clean and jerk	Participating_in_sports&Exercise&Recreation	Sports, Exercise, and Recreation	Participating in Sports, Exercise, or Recreation	Weightlifting	84	1	True	True	True	True	0.817471000002115
video_on	action	31	eeg	3	rHBVI7XHczs	Making an omelette	Food&Drink_prep.&Presentation&Clean-up	Eating and drinking Activities	Food & Drink Prep., Presentation, & Clean-up	Food and drink preparation	334	5	True	False	False	True	0.6070853999990504
video_on	action	31	eeg	3	QHDIcmRvImY	Doing kickboxing	Participating_in_sports&Exercise&Recreation	Sports, Exercise, and Recreation	Participating in Sports, Exercise, or Recreation	Participating in martial arts	70	1	True	True	True	True	0.7773207999998704
video_on	action	31	eeg	3	QTMcVmuG2hA	Playing field hockey	Participating_in_sports&Exercise&Recreation	Sports, Exercise, and Recreation	Participating in Sports, Exercise, or Recreation	Playing hockey	94	1	True	True	True	True	0.5880388999939896
video_on	action	31	eeg	3	zZv4s79KB5U	Playing ice hockey	Participating_in_sports&Exercise&Recreation	Sports, Exercise, and Recreation	Participating in Sports, Exercise, or Recreation	Playing hockey	347	1	True	True	True	True	0.5375695999973686
video_on	action	31	eeg	3	QJOuM-fpDao	Brushing teeth	Grooming	Personal Care	Grooming	Washing, dressing and grooming oneself	148	4	True	False	False	True	0.7536925000022165
video_on	action	31	eeg	3	IEYQ6at9_Sw	Carving jack-o-lanterns	Interior_maintenance&Repair&Decoration	Household Activities	Interior Maintenance, Repair, & Decoration	Interior arrangement, decoration, & repairs	295	7	True	False	False	True	0.6406408000038937
video_on	action	31	eeg	3	U27f8hOqhik	Volleyball	Participating_in_sports&Exercise&Recreation	Sports, Exercise, and Recreation	Participating in Sports, Exercise, or Recreation	Playing volleyball	123	1	True	True	True	True	0.9808418000029632
video_on	action	31	eeg	3	G7cfMuJQb_I	Playing accordion	Arts&Entertainment	Socializing, Relaxing, and Leisure	Arts and Entertainment	Playing musical instruments	267	2	True	False	False	True	0.7199500999995507
video_on	action	31	eeg	3	vy6_stKCgxo	Calf roping	Participating_in_sports&Exercise&Recreation	Sports, Exercise, and Recreation	Participating in Sports, Exercise, or Recreation	Participating in rodeo competitions	290	1	True	True	True	True	0.7628580000018701
video_on	action	31	eeg	3	wLYKVKPaNz0	Longboarding	Participating_in_sports&Exercise&Recreation	Sports, Exercise, and Recreation	Participating in Sports, Exercise, or Recreation	Playing sports	331	1	True	True	False	False	0.5972898999898462
video_on	action	31	eeg	3	rQ1zi9VSkYE	Putting on shoes	Grooming	Personal Care	Grooming	Washing, dressing and grooming oneself	352	4	True	False	False	True	0.7271332000091206
video_on	action	31	eeg	3	KCEJG2ZythA	Slacklining	Relaxing&Leisure	Socializing, Relaxing, and Leisure	Relaxing and Leisure	Playing games	371	3	True	False	False	True	0.5558948999969289
video_on	action	31	eeg	3	FODmNjz8vJ4	Triple jump	Participating_in_sports&Exercise&Recreation	Sports, Exercise, and Recreation	Participating in Sports, Exercise, or Recreation	Playing sports	155	1	True	True	True	True	0.6207852999941679
video_on	action	31	eeg	3	pzvb3rH9AQ0	Rock-paper-scissors	Relaxing&Leisure	Socializing, Relaxing, and Leisure	Relaxing and Leisure	Playing games	358	3	True	False	False	True	0.6295954999950482
video_on	action	31	eeg	3	0JGFriecR2w	Playing blackjack	Arts&Entertainment	Socializing, Relaxing, and Leisure	Arts and Entertainment	Attending gambling establishments	343	2	True	False	False	True	0.8878124000038952
video_on	action	31	eeg	3	TKnC2zp658o	Decorating the Christmas tree	Interior_maintenance&Repair&Decoration	Household Activities	Interior Maintenance, Repair, & Decoration	Interior arrangement, decoration, & repairs	302	7	True	False	False	True	0.5771480999974301
video_on	action	31	eeg	3	tDA-hnA9NjU	Using the monkey bar	Arts&Entertainment	Socializing, Relaxing, and Leisure	Arts and Entertainment	Park activities	383	2	True	False	False	True	0.5527118000027258
video_on	action	31	eeg	3	4Y94njisJd0	Playing squash	Participating_in_sports&Exercise&Recreation	Sports, Exercise, and Recreation	Participating in Sports, Exercise, or Recreation	Playing racquet sports	194	1	True	True	True	True	0.5712150999897858
video_on	action	31	eeg	3	P7etjl6qPxw	Mooping floor	Housework	Household Activities	Housework	Interior cleaning	335	6	True	False	False	True	0.527985799999442
video_on	action	31	eeg	3	trFFIicRwVM	Kayaking	Participating_in_sports&Exercise&Recreation	Sports, Exercise, and Recreation	Participating in Sports, Exercise, or Recreation	Participating in water sports	254	1	True	True	True	True	0.7041435999999521
video_on	action	31	eeg	3	wYXJBP93iH8	Playing flauta	Arts&Entertainment	Socializing, Relaxing, and Leisure	Arts and Entertainment	Playing musical instruments	149	2	True	False	False	True	0.6752492999949027
video_on	action	31	eeg	3	2Uy5PsKPXbk	Polishing forniture	Housework	Household Activities	Housework	Interior cleaning	156	6	True	False	False	True	0.9789654999913182
video_on	action	31	eeg	3	_JXG2wAZkYs	Chopping wood	Interior_maintenance&Repair&Decoration	Household Activities	Interior Maintenance, Repair, & Decoration	Heating and cooling	110	7	True	False	False	True	0.6203723999933572
video_on	action	31	eeg	3	Z2gXz1uilHE	Braiding hair	Grooming	Personal Care	Grooming	Washing, dressing and grooming oneself	285	4	True	False	False	True	0.642393499991158
video_on	action	31	eeg	3	EhLs3m4uqP0	Doing crunches	Participating_in_sports&Exercise&Recreation	Sports, Exercise, and Recreation	Participating in Sports, Exercise, or Recreation	Working out	305	1	True	True	False	False	0.6586239000025671
video_on	action	31	eeg	3	WCE7pxpB9a8	Hammer throw	Participating_in_sports&Exercise&Recreation	Sports, Exercise, and Recreation	Participating in Sports, Exercise, or Recreation	Playing sports	224	1	True	True	True	True	0.5223934999958146
video_on	action	31	eeg	3	FPCtkaWO_78	Vacuuming floor	Housework	Household Activities	Housework	Interior cleaning	160	6	True	False	False	True	0.5325563000078546
video_on	action	31	eeg	3	uA8y0FK9vEA	Using parallel bars	Participating_in_sports&Exercise&Recreation	Sports, Exercise, and Recreation	Participating in Sports, Exercise, or Recreation	Doing gymnastics	88	1	True	True	False	False	0.5716819000081159
video_on	action	31	eeg	3	HQI-PP6G9aI	Bathing dog	Animals&Pets	Household Activities	Animals and Pets	Care for animals and pets (not veterinary care)	90	8	True	False	False	True	0.4911362999991979
video_on	action	31	eeg	3	188rA78AFxg	Cutting the grass	Lawn&Garden&Houseplants	Household Activities	Lawn, Garden, and Houseplants	Lawn, garden, and houseplant care	301	9	True	False	False	True	0.7864291000005323
video_on	action	31	eeg	3	5t3A4hlkFBQ	Playing drums	Arts&Entertainment	Socializing, Relaxing, and Leisure	Arts and Entertainment	Playing musical instruments	346	2	True	False	False	True	0.6059438999945996
video_on	action	31	eeg	3	kSvQd8DRPHU	Using the balance beam	Participating_in_sports&Exercise&Recreation	Sports, Exercise, and Recreation	Participating in Sports, Exercise, or Recreation	Doing gymnastics	180	1	True	True	True	True	0.7915353999997023
video_on	action	31	eeg	3	7dY38cGzq80	Snow tubing	Participating_in_sports&Exercise&Recreation	Sports, Exercise, and Recreation	Participating in Sports, Exercise, or Recreation	Skiing, ice skating, snowboarding	372	1	True	True	False	False	0.5964502999995602
video_on	action	31	eeg	3	NcsBp4WG4U8	Welding	Appliances&Tools&Toys	Household Activities	Appliances, Tools, and Toys	Appliance, tool, and toy set-up, repair, & maintenance (by self)	388	10	True	False	False	True	0.7185477999883005
video_on	action	31	eeg	3	vaqGIs0K9Nw	Discus throw	Participating_in_sports&Exercise&Recreation	Sports, Exercise, and Recreation	Participating in Sports, Exercise, or Recreation	Playing sports	92	1	True	True	True	True	0.9912619999959134
video_on	action	31	eeg	3	7JCFuquDi5E	Walking the dog	Animals&Pets	Household Activities	Animals and Pets	Walking / exercising / playing with animals	221	8	True	False	False	True	0.9270943000010448
video_on	action	31	eeg	3	uqFwyvss-Rc	Preparing salad	Food&Drink_prep.&Presentation&Clean-up	Eating and drinking Activities	Food & Drink Prep., Presentation, & Clean-up	Food and drink preparation	96	5	True	False	False	True	0.6438215000089258
video_on	action	31	eeg	3	hjK9vreNocE	Long jump	Participating_in_sports&Exercise&Recreation	Sports, Exercise, and Recreation	Participating in Sports, Exercise, or Recreation	Playing sports	80	1	False	True	False	False	0.0
video_on	action	31	eeg	4	RazM7iGKlCw	Disc dog	Animals&Pets	Household Activities	Animals and Pets	Walking / exercising / playing with animals	303	8	True	False	False	True	0.6782986000034725
video_on	action	31	eeg	4	x1DAa-Jl1JQ	Shaving	Grooming	Personal Care	Grooming	Washing, dressing and grooming oneself	190	4	True	False	False	True	0.6254884999943897
video_on	action	31	eeg	4	GJh_X8F9kFU	Paintball	Participating_in_sports&Exercise&Recreation	Sports, Exercise, and Recreation	Participating in Sports, Exercise, or Recreation	Playing sports	141	1	True	True	False	False	0.6447260999993887
video_on	action	31	eeg	4	J3lkRwEGl10	Washing dishes	Food&Drink_prep.&Presentation&Clean-up	Eating and drinking Activities	Food & Drink Prep., Presentation, & Clean-up	Kitchen and food clean-up	213	5	True	False	False	True	0.5306496000121115
video_on	action	31	eeg	4	pz6DRetwmNY	Wrapping presents	Household_management	Household Activities	Household Management	Household & personal organization and planning	179	13	True	False	False	True	0.5253267000080086
video_on	action	31	eeg	4	qDsLcD8ee_w	Wakeboarding	Participating_in_sports&Exercise&Recreation	Sports, Exercise, and Recreation	Participating in Sports, Exercise, or Recreation	Participating in water sports	385	1	True	True	True	True	0.7981158999900799
video_on	action	31	eeg	4	T2AM_DSwWJk	Grooming horse	Animals&Pets	Household Activities	Animals and Pets	Walking / exercising / playing with animals	95	8	True	False	False	True	0.0050728000060189
video_on	action	31	eeg	4	sf6SJMpAA7M	Arm wrestling	Participating_in_sports&Exercise&Recreation	Sports, Exercise, and Recreation	Participating in Sports, Exercise, or Recreation	Wrestling	271	1	True	True	False	False	0.5499886999896262
video_on	action	31	eeg	4	tvoCmHIuqRI	Powerbocking	Participating_in_sports&Exercise&Recreation	Sports, Exercise, and Recreation	Participating in Sports, Exercise, or Recreation	Playing sports	350	1	True	True	False	False	0.8798104999877978
video_on	action	31	eeg	4	i66tq-h6chY	Grooming dog	Animals&Pets	Household Activities	Animals and Pets	Care for animals and pets (not veterinary care)	317	8	True	False	False	True	0.9493679000006524
video_on	action	31	eeg	4	KJN44tCNzew	Knitting	Housework	Household Activities	Housework	Sewing, repairing, & maintaining textiles	329	6	True	False	False	True	0.656561399999191
video_on	action	31	eeg	4	hicotSN4rVk	Cleaning sink	Interior_maintenance&Repair&Decoration	Household Activities	Interior Maintenance, Repair, & Decoration	Interior arrangement, decoration, & repairs	297	7	True	False	False	True	0.7581970000028377
video_on	action	31	eeg	4	YlTSz3RWfyQ	Playing harmonica	Arts&Entertainment	Socializing, Relaxing, and Leisure	Arts and Entertainment	Playing musical instruments	100	2	True	False	False	True	0.6785296999878483
video_on	action	31	eeg	4	wqgArRZouZg	Tango	Arts&Entertainment	Socializing, Relaxing, and Leisure	Arts and Entertainment	Dancing	73	2	True	False	False	True	0.4897320000018226
video_on	action	31	eeg	4	M0DGnjBkvZo	Tug of war	Relaxing&Leisure	Socializing, Relaxing, and Leisure	Relaxing and Leisure	Playing games	382	3	True	False	True	False	0.9439478999993298
video_on	action	31	eeg	4	PAzl3dbie9I	Cleaning windows	Housework	Household Activities	Housework	Interior cleaning	143	6	True	False	False	True	0.6205710999929579
video_on	action	31	eeg	4	WWme-UXhY_I	Making a cake	Food&Drink_prep.&Presentation&Clean-up	Eating and drinking Activities	Food & Drink Prep., Presentation, & Clean-up	Food and drink preparation	332	5	True	False	False	True	0.9129641000035916
video_on	action	31	eeg	4	uq8RC3FlKxQ	Baton twirling	Participating_in_sports&Exercise&Recreation	Sports, Exercise, and Recreation	Participating in Sports, Exercise, or Recreation	Playing sports	277	1	True	True	True	True	0.746441600000253
video_on	action	31	eeg	4	bEqBXnIGAPU	Archery	Participating_in_sports&Exercise&Recreation	Sports, Exercise, and Recreation	Participating in Sports, Exercise, or Recreation	Playing sports	250	1	False	True	False	False	0.0
video_on	action	31	eeg	4	zR8-v5aIRHg	Canoeing	Participating_in_sports&Exercise&Recreation	Sports, Exercise, and Recreation	Participating in Sports, Exercise, or Recreation	Boating	292	1	True	True	True	True	0.0050737000128719
video_on	action	31	eeg	4	9hQfx3z3Pkc	Putting on makeup	Grooming	Personal Care	Grooming	Washing, dressing and grooming oneself	76	4	True	False	False	True	0.7172036999982083
video_on	action	31	eeg	4	XnKYDyQbRVY	Painting furniture	Interior_maintenance&Repair&Decoration	Household Activities	Interior Maintenance, Repair, & Decoration	Building and repairing furniture	337	7	True	False	False	True	0.6789425000024494
video_on	action	31	eeg	4	dQYPdbyZHto	Cricket	Participating_in_sports&Exercise&Recreation	Sports, Exercise, and Recreation	Participating in Sports, Exercise, or Recreation	Playing sports	82	1	True	True	True	True	0.4536794999876292
video_on	action	31	eeg	4	rNzCMWL7DOY	Doing nails	Grooming	Personal Care	Grooming	Washing, dressing and grooming oneself	167	4	True	False	False	True	0.5796295999898575
video_on	action	31	eeg	4	8esfOxoPNGQ	Belly dance	Arts&Entertainment	Socializing, Relaxing, and Leisure	Arts and Entertainment	Dancing	247	2	True	False	False	True	0.7271240999980364
video_on	action	31	eeg	4	dFbpx0phSdw	Beach soccer	Participating_in_sports&Exercise&Recreation	Sports, Exercise, and Recreation	Participating in Sports, Exercise, or Recreation	Playing soccer	278	1	True	True	True	True	0.7003521000006003
video_on	action	31	eeg	4	oA4-RtveN_A	Fun sliding down	Arts&Entertainment	Socializing, Relaxing, and Leisure	Arts and Entertainment	Park activities	313	2	True	False	False	True	0.6464468000049237
video_on	action	31	eeg	4	Pa9ceP2Ex0M	Getting a tattoo	Grooming	Personal Care	Grooming	Washing, dressing and grooming	187	4	True	False	False	True	0.5881591999932425
video_on	action	31	eeg	4	y5ShQ7fMd6w	Cheerleading	Arts&Entertainment	Socializing, Relaxing, and Leisure	Arts and Entertainment	Dancing	140	2	True	False	True	False	0.6156057000043802
video_on	action	31	eeg	4	InatVsyyln4	Playing congas	Arts&Entertainment	Socializing, Relaxing, and Leisure	Arts and Entertainment	Playing musical instruments	345	2	True	False	False	True	0.4805389000102877
video_on	action	31	eeg	4	e5o0NFGdyiU	Playing water polo	Participating_in_sports&Exercise&Recreation	Sports, Exercise, and Recreation	Participating in Sports, Exercise, or Recreation	Participating in water sports	130	1	True	True	True	True	0.566205600000103
video_on	action	31	eeg	4	79KsIwzBHa0	Bullfighting	Participating_in_sports&Exercise&Recreation	Sports, Exercise, and Recreation	Participating in Sports, Exercise, or Recreation	Participating in rodeo competitions	288	1	True	True	True	True	0.5789117999956943
video_on	action	31	eeg	4	AFRIR4--fZk	Table soccer	Relaxing&Leisure	Socializing, Relaxing, and Leisure	Relaxing and Leisure	Playing games	379	3	True	False	False	True	0.6090530000074068
video_on	action	31	eeg	4	TW5Q6DhjCAg	Running a marathon	Participating_in_sports&Exercise&Recreation	Sports, Exercise, and Recreation	Participating in Sports, Exercise, or Recreation	Running	362	1	True	True	True	True	0.6208447000099113
video_on	action	31	eeg	4	TJGctL_ZBX8	Ping-pong	Participating_in_sports&Exercise&Recreation	Sports, Exercise, and Recreation	Participating in Sports, Exercise, or Recreation	Playing racquet sports	119	1	True	True	True	True	0.7562892999994801
video_on	action	31	eeg	4	3OPVwFHDzw0	Baking cookies	Food&Drink_prep.&Presentation&Clean-up	Eating and drinking Activities	Food & Drink Prep., Presentation, & Clean-up	Food and drink preparation	276	5	True	False	False	True	0.7342845000093803
video_on	action	31	eeg	4	jNLq2gQtpaE	Javelin throw	Participating_in_sports&Exercise&Recreation	Sports, Exercise, and Recreation	Participating in Sports, Exercise, or Recreation	Playing sports	116	1	True	True	True	True	0.6816180999885546
video_on	action	31	eeg	4	bHJLjRjl4i0	Hanging wallpaper	Interior_maintenance&Repair&Decoration	Household Activities	Interior Maintenance, Repair, & Decoration	Interior arrangement, decoration, & repairs	319	7	True	False	False	True	0.5504970000038156
video_on	action	31	eeg	4	DY8Wn-qtRAI	Shot put	Participating_in_sports&Exercise&Recreation	Sports, Exercise, and Recreation	Participating in Sports, Exercise, or Recreation	Playing sports	169	1	True	True	True	True	0.7924293000105536
video_on	action	31	eeg	4	mvh7LJdALS0	Painting fence	Exterior_maintenance&Repair&Decoration	Household Activities	Exterior Maintenance, Repair, & Decoration	Painting fence	336	12	True	False	False	True	0.490512900010799
video_on	action	31	eeg	4	iCzIMzFj40U	Drum corps	Arts&Entertainment	Socializing, Relaxing, and Leisure	Arts and Entertainment	Playing musical instruments	307	2	True	False	False	True	0.5443405999976676
video_on	action	31	eeg	4	oJ9ekWYLmFg	Playing pool	Relaxing&Leisure	Socializing, Relaxing, and Leisure	Relaxing and Leisure	Playing games	348	3	True	False	False	True	0.5670465000002878
video_on	action	31	eeg	4	bmXFas4-NyU	Kite flying	Relaxing&Leisure	Socializing, Relaxing, and Leisure	Relaxing and Leisure	Playing games	327	3	True	False	False	True	0.4920088999933796
video_on	action	31	eeg	4	MHoIR8-Dn5U	Bungee jumping	Participating_in_sports&Exercise&Recreation	Sports, Exercise, and Recreation	Participating in Sports, Exercise, or Recreation	Playing sports	154	1	True	True	False	False	0.6399614999972982
video_on	action	31	eeg	4	mbf-Q2gR9Vg	Rope skipping	Participating_in_sports&Exercise&Recreation	Sports, Exercise, and Recreation	Participating in Sports, Exercise, or Recreation	Working out	361	1	True	True	False	False	0.5066307999950368
video_on	action	31	eeg	4	JfLjMzjsI7c	Beer pong	Relaxing&Leisure	Socializing, Relaxing, and Leisure	Relaxing and Leisure	Playing games	280	3	True	False	False	True	0.7236218000034569
video_on	action	31	eeg	4	pO-zxDa3i-U	Having an ice cream	Food&Drink_prep.&Presentation&Clean-up	Eating and drinking Activities	Food & Drink Prep., Presentation, & Clean-up	Eating and Drinking	320	5	True	False	False	True	0.6158542000048328
video_on	action	31	eeg	4	RcAmXq4Cibg	Playing piano	Arts&Entertainment	Socializing, Relaxing, and Leisure	Arts and Entertainment	Playing musical instruments	197	2	True	False	False	True	0.8081851000024471
video_on	action	31	eeg	4	NdPqAa3neZY	Rafting	Participating_in_sports&Exercise&Recreation	Sports, Exercise, and Recreation	Participating in Sports, Exercise, or Recreation	Boating	353	1	True	True	False	False	0.6148610999953235
video_on	action	31	eeg	4	wHq37w1ac34	Using uneven bars	Participating_in_sports&Exercise&Recreation	Sports, Exercise, and Recreation	Participating in Sports, Exercise, or Recreation	Doing gymnastics	192	1	True	True	True	True	0.5409354000003077
video_on	action	31	eeg	4	X08M8mMtRdQ	Playing guitarra	Arts&Entertainment	Socializing, Relaxing, and Leisure	Arts and Entertainment	Playing musical instruments	251	2	True	False	False	True	0.6165112000016961
video_on	action	31	eeg	4	nfSLtE7ooCc	Smoking hookah	Relaxing&Leisure	Socializing, Relaxing, and Leisure	Relaxing and Leisure	Tobacco and drug use	189	3	True	False	False	True	0.7595406000036746
video_on	action	31	eeg	4	sBqSIvq-j9g	Ice fishing	Participating_in_sports&Exercise&Recreation	Sports, Exercise, and Recreation	Participating in Sports, Exercise, or Recreation	Fishing	324	1	True	True	False	False	0.757022899997537
video_on	action	31	eeg	4	9ZK0w-XUCb8	Doing step aerobics	Participating_in_sports&Exercise&Recreation	Sports, Exercise, and Recreation	Participating in Sports, Exercise, or Recreation	Doing aerobics	230	1	True	True	False	False	0.6354370999906678
video_on	action	31	eeg	4	gnajqDXfmR0	Sumo	Participating_in_sports&Exercise&Recreation	Sports, Exercise, and Recreation	Participating in Sports, Exercise, or Recreation	Wrestling	375	1	True	True	False	False	0.5740825999964727
video_on	action	31	eeg	4	9o2iojC7gSw	Pole vault	Participating_in_sports&Exercise&Recreation	Sports, Exercise, and Recreation	Participating in Sports, Exercise, or Recreation	Playing sports	106	1	True	True	True	True	0.7932036000129301
video_on	action	31	eeg	4	6H5tDL2bgxg	Throwing darts	Relaxing&Leisure	Socializing, Relaxing, and Leisure	Relaxing and Leisure	Playing games	380	3	False	False	False	True	0.0
video_on	action	31	eeg	4	CXONhMCk4Wk	Ballet	Arts&Entertainment	Socializing, Relaxing, and Leisure	Arts and Entertainment	Attending arts and entertainment	229	2	True	False	False	True	0.005070599989267
video_on	action	31	eeg	4	Uux-lEtVqIs	BMX	Participating_in_sports&Exercise&Recreation	Sports, Exercise, and Recreation	Participating in Sports, Exercise, or Recreation	Biking	274	1	True	True	False	False	0.5237008999974933
video_on	action	31	eeg	4	ak9xnZdRUu4	Skiing	Participating_in_sports&Exercise&Recreation	Sports, Exercise, and Recreation	Participating in Sports, Exercise, or Recreation	Skiing, ice skating, snowboarding	369	1	True	True	False	False	0.5222137000091607
video_on	action	31	eeg	4	f7SctdFUQxs	Drinking coffee	Food&Drink_prep.&Presentation&Clean-up	Eating and drinking Activities	Food & Drink Prep., Presentation, & Clean-up	Eating and Drinking	68	5	False	False	False	True	0.0
video_on	action	31	eeg	4	9VGMxQ-EPw0	Making a lemonade	Food&Drink_prep.&Presentation&Clean-up	Eating and drinking Activities	Food & Drink Prep., Presentation, & Clean-up	Food and drink preparation	333	5	True	False	False	True	0.0050886000099126
video_on	action	31	eeg	4	9kjh6JhwgJA	Swinging at the playground	Arts&Entertainment	Socializing, Relaxing, and Leisure	Arts and Entertainment	Park activities	378	2	True	False	False	True	0.6968389999965439
video_on	action	31	eeg	4	CIeLgHOZ2nk	Riding bumper cars	Relaxing&Leisure	Socializing, Relaxing, and Leisure	Relaxing and Leisure	Playing games	356	3	True	False	False	True	0.4741872000013245
video_on	action	31	eeg	4	cyEdg4wsglM	Breakdancing	Arts&Entertainment	Socializing, Relaxing, and Leisure	Arts and Entertainment	Dancing	236	2	True	False	False	True	0.7227063000027556
video_on	action	31	eeg	4	r25lPbZN1ZI	Croquet	Participating_in_sports&Exercise&Recreation	Sports, Exercise, and Recreation	Participating in Sports, Exercise, or Recreation	Playing sports	299	1	True	True	False	False	0.5558789999922737
video_on	action	31	eeg	4	1K3oB4nlAFE	Plastering	Interior_maintenance&Repair&Decoration	Household Activities	Interior Maintenance, Repair, & Decoration	Interior arrangement, decoration, & repairs	340	7	True	False	False	True	0.7370692000113195
video_on	action	31	eeg	4	nkdxbCDLWCY	Hand washing clothes	Housework	Household Activities	Housework	Laundry	232	6	True	False	False	True	0.5980226000101538
video_on	action	31	eeg	4	ALbfaFUHdFo	Horseback riding	Participating_in_sports&Exercise&Recreation	Sports, Exercise, and Recreation	Participating in Sports, Exercise, or Recreation	Participating in equestrian sports	175	1	True	True	False	False	0.527612500009127
video_on	action	31	eeg	4	Fq0ar260kjc	Playing violin	Arts&Entertainment	Socializing, Relaxing, and Leisure	Arts and Entertainment	Playing musical instruments	234	2	True	False	False	True	0.6364806999918073
video_on	action	31	eeg	4	FRq5ReTo4DY	Hula hoop	Relaxing&Leisure	Socializing, Relaxing, and Leisure	Relaxing and Leisure	Playing games	322	3	True	False	False	True	0.8530257999955211
video_on	action	31	eeg	4	-LSNTSMtoz0	Ironing clothes	Housework	Household Activities	Housework	Laundry	83	6	True	False	False	True	0.56256150000263
video_on	action	31	eeg	4	rJ_4mYTSiSM	Washing hands	Grooming	Personal Care	Grooming	Washing, dressing and grooming oneself	173	4	True	False	False	True	0.5274792999989586
video_on	action	31	eeg	4	1lCPSBWqXOM	Raking leaves	Lawn&Garden&Houseplants	Household Activities	Lawn, Garden, and Houseplants	Lawn, garden, and houseplant care	354	9	True	False	False	True	0.5307898000028217
video_on	action	31	eeg	4	WBBz_D0Xmmg	Plataform diving	Participating_in_sports&Exercise&Recreation	Sports, Exercise, and Recreation	Participating in Sports, Exercise, or Recreation	Participating in water sports	233	1	True	True	True	True	0.6812871000001905
video_on	action	31	eeg	4	IjpaYGohq-I	Putting in contact lenses	Grooming	Personal Care	Grooming	Washing, dressing and grooming oneself	351	4	True	False	False	True	0.5934745000122348
video_on	action	31	eeg	4	v5FSDQP38nw	Waterskiing	Participating_in_sports&Exercise&Recreation	Sports, Exercise, and Recreation	Participating in Sports, Exercise, or Recreation	Participating in water sports	386	1	True	True	True	True	0.94236169999931
video_on	action	31	eeg	4	ZWgsRzFLmU4	Futsal	Participating_in_sports&Exercise&Recreation	Sports, Exercise, and Recreation	Participating in Sports, Exercise, or Recreation	Playing soccer	315	1	True	True	False	False	0.7191066999948816
video_on	action	31	eeg	4	q8g9kBoDq5A	Playing bagpipes	Arts&Entertainment	Socializing, Relaxing, and Leisure	Arts and Entertainment	Playing musical instruments	136	2	False	False	False	True	0.0
video_on	action	31	eeg	4	SAkFDj13TfE	Blow-drying hair	Grooming	Personal Care	Grooming	Washing, dressing and grooming oneself	281	4	True	False	False	True	0.5344868999964092
video_on	action	31	eeg	4	iQNykaabQpc	Capoeira	Participating_in_sports&Exercise&Recreation	Sports, Exercise, and Recreation	Participating in Sports, Exercise, or Recreation	Participating in martial arts	294	1	True	True	False	False	0.6309276999963913
video_on	action	31	eeg	4	YO4S4rivpIg	Surfing	Participating_in_sports&Exercise&Recreation	Sports, Exercise, and Recreation	Participating in Sports, Exercise, or Recreation	Participating in water sports	376	1	True	True	True	True	0.8852162999974098
video_on	action	31	eeg	4	_fv62X6W5rg	Sharpening knives	Appliances&Tools&Toys	Household Activities	Appliances, Tools, and Toys	Appliance, tool, and toy set-up, repair, & maintenance (by self)	365	10	True	False	False	True	0.98227589999442
video_on	action	31	eeg	4	sWeDaZl70xo	Playing lacrosse	Participating_in_sports&Exercise&Recreation	Sports, Exercise, and Recreation	Participating in Sports, Exercise, or Recreation	Playing racquet sports	209	1	True	True	True	True	0.8563201000069967
video_on	action	31	eeg	4	dciyIaWO808	Painting	Interior_maintenance&Repair&Decoration	Household Activities	Interior Maintenance, Repair, & Decoration	Interior arrangement, decoration, & repairs	217	7	True	False	False	True	0.6144877999904566
video_on	action	31	eeg	4	wqEuwCoNwYc	Scuba diving	Participating_in_sports&Exercise&Recreation	Sports, Exercise, and Recreation	Participating in Sports, Exercise, or Recreation	Participating in water sports	364	1	True	True	False	False	0.4907313000003341
video_on	action	31	eeg	4	ECciy0NdHZk	Hitting a pinata	Relaxing&Leisure	Socializing, Relaxing, and Leisure	Relaxing and Leisure	Playing games	321	3	True	False	False	True	0.5824675000039861
video_on	action	31	eeg	4	2BsUTL3ZeKo	Assembling bicycle	Vehicles	Household Activities	Vehicles	Vehicle repair and maintenance (by self)	273	11	False	False	False	True	0.0
video_on	action	31	eeg	4	1vrv8k62FMw	Using the pommel horse	Participating_in_sports&Exercise&Recreation	Sports, Exercise, and Recreation	Participating in Sports, Exercise, or Recreation	Doing gymnastics	114	1	True	True	False	False	0.0050701000000117
video_on	action	31	eeg	4	Icfw7jOTdpg	Getting a piercing	Grooming	Personal Care	Grooming	Washing, dressing and grooming	214	4	False	False	False	True	0.0
video_on	action	31	eeg	5	2nuZ9IrvFbo	Brushing hair	Grooming	Personal Care	Grooming	Washing, dressing and grooming oneself	125	4	True	False	False	True	0.7022448000061559
video_on	action	31	eeg	5	ng6DbV-HBig	Long jump	Participating_in_sports&Exercise&Recreation	Sports, Exercise, and Recreation	Participating in Sports, Exercise, or Recreation	Playing sports	80	1	True	True	True	True	0.8019299000006868
video_on	action	31	eeg	5	MpvuRRab71s	Putting on makeup	Grooming	Personal Care	Grooming	Washing, dressing and grooming oneself	76	4	True	False	False	True	0.6019301999913296
video_on	action	31	eeg	5	X6xO8yssf1k	Playing badminton	Participating_in_sports&Exercise&Recreation	Sports, Exercise, and Recreation	Participating in Sports, Exercise, or Recreation	Playing racquet sports	268	1	True	True	True	True	0.5099776999995811
video_on	action	31	eeg	5	vZvPmW4eimM	Belly dance	Arts&Entertainment	Socializing, Relaxing, and Leisure	Arts and Entertainment	Dancing	247	2	True	False	False	True	0.5591133999987505
video_on	action	31	eeg	5	GKv7nPNR9JA	Preparing salad	Food&Drink_prep.&Presentation&Clean-up	Eating and drinking Activities	Food & Drink Prep., Presentation, & Clean-up	Food and drink preparation	96	5	True	False	False	True	0.5575316999893403
video_on	action	31	eeg	5	Vm6aafP_RSE	Snatch	Participating_in_sports&Exercise&Recreation	Sports, Exercise, and Recreation	Participating in Sports, Exercise, or Recreation	Weightlifting	79	1	True	True	False	False	0.6721030000044266
video_on	action	31	eeg	5	Ly7DJpxDWdo	Smoking hookah	Relaxing&Leisure	Socializing, Relaxing, and Leisure	Relaxing and Leisure	Tobacco and drug use	189	3	True	False	False	True	0.5112045999994734
video_on	action	31	eeg	5	je-yPgUWpK4	Bullfighting	Participating_in_sports&Exercise&Recreation	Sports, Exercise, and Recreation	Participating in Sports, Exercise, or Recreation	Participating in rodeo competitions	288	1	True	True	True	True	0.4906271000072593
video_on	action	31	eeg	5	k5e1HPeusiA	Making a sandwich	Food&Drink_prep.&Presentation&Clean-up	Eating and drinking Activities	Food & Drink Prep., Presentation, & Clean-up	Food and drink preparation	129	5	True	False	False	True	0.5372275999980047
video_on	action	31	eeg	5	_VhvmCcXKVQ	Javelin throw	Participating_in_sports&Exercise&Recreation	Sports, Exercise, and Recreation	Participating in Sports, Exercise, or Recreation	Playing sports	116	1	True	True	True	True	0.8899413999897661
video_on	action	31	eeg	5	_2RLSKGVj0g	Throwing darts	Relaxing&Leisure	Socializing, Relaxing, and Leisure	Relaxing and Leisure	Playing games	380	3	False	False	False	True	0.0
video_on	action	31	eeg	5	cUfprq7MLok	Canoeing	Participating_in_sports&Exercise&Recreation	Sports, Exercise, and Recreation	Participating in Sports, Exercise, or Recreation	Boating	292	1	True	True	False	False	0.5628725999995368
video_on	action	31	eeg	5	kz_pce3kvNw	Polishing shoes	Housework	Household Activities	Housework	Sewing, repairing, & maintaining textiles	227	6	True	False	False	True	0.5856481000082567
video_on	action	31	eeg	5	uuE_Cduldf4	Kayaking	Participating_in_sports&Exercise&Recreation	Sports, Exercise, and Recreation	Participating in Sports, Exercise, or Recreation	Participating in water sports	254	1	True	True	False	False	0.5646275999897625
video_on	action	31	eeg	5	HNjWluqxeeg	Disc dog	Animals&Pets	Household Activities	Animals and Pets	Walking / exercising / playing with animals	303	8	True	False	False	True	0.6141982999979518
video_on	action	31	eeg	5	fXXSRVfqP_s	Raking leaves	Lawn&Garden&Houseplants	Household Activities	Lawn, Garden, and Houseplants	Lawn, garden, and houseplant care	354	9	True	False	False	True	0.5945013000018662
video_on	action	31	eeg	5	ORYtIlVhRhk	Powerbocking	Participating_in_sports&Exercise&Recreation	Sports, Exercise, and Recreation	Participating in Sports, Exercise, or Recreation	Playing sports	350	1	True	True	False	False	0.5817624000046635
video_on	action	31	eeg	5	BpVAPPzj3ZI	Ping-pong	Participating_in_sports&Exercise&Recreation	Sports, Exercise, and Recreation	Participating in Sports, Exercise, or Recreation	Playing racquet sports	119	1	True	True	True	True	0.5362875999999233
video_on	action	31	eeg	5	ScqjmDMJM60	Hammer throw	Participating_in_sports&Exercise&Recreation	Sports, Exercise, and Recreation	Participating in Sports, Exercise, or Recreation	Playing sports	224	1	True	True	True	True	0.5004897000035271
video_on	action	31	eeg	5	Tv36imZEFb8	High jump	Participating_in_sports&Exercise&Recreation	Sports, Exercise, and Recreation	Participating in Sports, Exercise, or Recreation	Playing sports	195	1	True	True	True	True	0.5065868999954546
video_on	action	31	eeg	5	5NFuTqDJ244	Playing rubik cube	Relaxing&Leisure	Socializing, Relaxing, and Leisure	Relaxing and Leisure	Playing games	349	3	True	False	False	True	0.5923840000032214
video_on	action	31	eeg	5	OUip10Rw6HM	Braiding hair	Grooming	Personal Care	Grooming	Washing, dressing and grooming oneself	285	4	True	False	False	True	0.5950487000081921
video_on	action	31	eeg	5	a4p5GQjL4dk	Sailing	Participating_in_sports&Exercise&Recreation	Sports, Exercise, and Recreation	Participating in Sports, Exercise, or Recreation	Participating in water sports	240	1	True	True	False	False	0.677919000008842
video_on	action	31	eeg	5	E7UtJczlamc	Baton twirling	Participating_in_sports&Exercise&Recreation	Sports, Exercise, and Recreation	Participating in Sports, Exercise, or Recreation	Playing sports	277	1	True	True	False	False	0.510312200000044
video_on	action	31	eeg	5	eXddtnq1ZhY	Chopping wood	Interior_maintenance&Repair&Decoration	Household Activities	Interior Maintenance, Repair, & Decoration	Heating and cooling	110	7	True	False	False	True	0.5404741999955149
video_on	action	31	eeg	5	aAAYz6q_-jc	Bathing dog	Animals&Pets	Household Activities	Animals and Pets	Care for animals and pets (not veterinary care)	90	8	True	False	False	True	0.6036310000054073
video_on	action	31	eeg	5	y_ZTeuvgd-I	Hula hoop	Relaxing&Leisure	Socializing, Relaxing, and Leisure	Relaxing and Leisure	Playing games	322	3	True	False	False	True	0.7010252000036417
video_on	action	31	eeg	5	0IM7ZDSi5-A	Camel ride	Participating_in_sports&Exercise&Recreation	Sports, Exercise, and Recreation	Participating in Sports, Exercise, or Recreation	Playing sports	291	1	True	True	False	False	0.722915299993474
video_on	action	31	eeg	5	8sqRPesWDXY	Getting a piercing	Grooming	Personal Care	Grooming	Washing, dressing and grooming	214	4	True	False	False	True	0.6095001999929082
video_on	action	31	eeg	5	uno2SjkJngQ	Surfing	Participating_in_sports&Exercise&Recreation	Sports, Exercise, and Recreation	Participating in Sports, Exercise, or Recreation	Participating in water sports	376	1	True	True	True	True	0.5679810000001453
video_on	action	31	eeg	5	4rOQlUisPHY	Playing ice hockey	Participating_in_sports&Exercise&Recreation	Sports, Exercise, and Recreation	Participating in Sports, Exercise, or Recreation	Playing hockey	347	1	True	True	True	True	0.5764912000013283
video_on	action	31	eeg	5	PnB_IvOxw9E	Zumba	Participating_in_sports&Exercise&Recreation	Sports, Exercise, and Recreation	Participating in Sports, Exercise, or Recreation	Doing aerobics	69	1	True	True	False	False	0.9618692999938504
video_on	action	31	eeg	5	TosIqqE4gsw	Croquet	Participating_in_sports&Exercise&Recreation	Sports, Exercise, and Recreation	Participating in Sports, Exercise, or Recreation	Playing sports	299	1	True	True	False	False	0.5311324999929639
video_on	action	31	eeg	5	YrufMCVKjCk	Playing guitarra	Arts&Entertainment	Socializing, Relaxing, and Leisure	Arts and Entertainment	Playing musical instruments	251	2	True	False	False	True	0.6936796000081813
video_on	action	31	eeg	5	I-mwq6USs8s	Using the balance beam	Participating_in_sports&Exercise&Recreation	Sports, Exercise, and Recreation	Participating in Sports, Exercise, or Recreation	Doing gymnastics	180	1	True	True	True	True	0.4485794999927748
video_on	action	31	eeg	5	gzpa0nKbcjw	Playing field hockey	Participating_in_sports&Exercise&Recreation	Sports, Exercise, and Recreation	Participating in Sports, Exercise, or Recreation	Playing hockey	94	1	True	True	True	True	0.6253160000051139
video_on	action	31	eeg	5	-zbdNsh9kY0	Paintball	Participating_in_sports&Exercise&Recreation	Sports, Exercise, and Recreation	Participating in Sports, Exercise, or Recreation	Playing sports	141	1	True	True	False	False	0.2534137999900849
video_on	action	31	eeg	5	SZYPVOlQitc	Playing drums	Arts&Entertainment	Socializing, Relaxing, and Leisure	Arts and Entertainment	Playing musical instruments	346	2	True	False	False	True	0.5537063999945531
video_on	action	31	eeg	5	gJWMCUMdO4Q	Welding	Appliances&Tools&Toys	Household Activities	Appliances, Tools, and Toys	Appliance, tool, and toy set-up, repair, & maintenance (by self)	388	10	True	False	False	True	0.633898300002329
video_on	action	31	eeg	5	5s7Mwf6vpCw	Rafting	Participating_in_sports&Exercise&Recreation	Sports, Exercise, and Recreation	Participating in Sports, Exercise, or Recreation	Boating	353	1	True	True	False	False	0.6875001000007614
video_on	action	31	eeg	5	_bmWfW8z29E	Ballet	Arts&Entertainment	Socializing, Relaxing, and Leisure	Arts and Entertainment	Attending arts and entertainment	229	2	True	False	False	True	0.7585869999893475
video_on	action	31	eeg	5	eWniWgtxapE	Shot put	Participating_in_sports&Exercise&Recreation	Sports, Exercise, and Recreation	Participating in Sports, Exercise, or Recreation	Playing sports	169	1	True	True	True	True	0.8991237000009278
video_on	action	31	eeg	5	C3xeC5sv0cU	Futsal	Participating_in_sports&Exercise&Recreation	Sports, Exercise, and Recreation	Participating in Sports, Exercise, or Recreation	Playing soccer	315	1	True	True	True	True	0.651456399995368
video_on	action	31	eeg	5	agZNSscDJww	Hurling	Participating_in_sports&Exercise&Recreation	Sports, Exercise, and Recreation	Participating in Sports, Exercise, or Recreation	Playing sports	323	1	True	True	True	True	0.9666725999995832
video_on	action	31	eeg	5	30nHSXX8LM4	Dodgeball	Participating_in_sports&Exercise&Recreation	Sports, Exercise, and Recreation	Participating in Sports, Exercise, or Recreation	Playing sports	161	1	True	True	True	True	0.5107781999977306
video_on	action	31	eeg	5	3p_sbAwnYDg	Playing harmonica	Arts&Entertainment	Socializing, Relaxing, and Leisure	Arts and Entertainment	Playing musical instruments	100	2	True	False	False	True	0.7219486999965739
video_on	action	31	eeg	5	vqjaABP2oug	Volleyball	Participating_in_sports&Exercise&Recreation	Sports, Exercise, and Recreation	Participating in Sports, Exercise, or Recreation	Playing volleyball	123	1	True	True	True	True	0.5862189000035869
video_on	action	31	eeg	5	pNJ2toC4_64	Bungee jumping	Participating_in_sports&Exercise&Recreation	Sports, Exercise, and Recreation	Participating in Sports, Exercise, or Recreation	Playing sports	154	1	True	True	False	False	0.7406508999993093
video_on	action	31	eeg	5	byiV2J9o6u0	Plataform diving	Participating_in_sports&Exercise&Recreation	Sports, Exercise, and Recreation	Participating in Sports, Exercise, or Recreation	Participating in water sports	233	1	True	True	True	True	0.9203029999916909
video_on	action	31	eeg	5	gJaBTW5W3-o	Using parallel bars	Participating_in_sports&Exercise&Recreation	Sports, Exercise, and Recreation	Participating in Sports, Exercise, or Recreation	Doing gymnastics	88	1	True	True	True	True	0.4916327999962959
video_on	action	31	eeg	5	qLVJ0drTIt0	Kite flying	Relaxing&Leisure	Socializing, Relaxing, and Leisure	Relaxing and Leisure	Playing games	327	3	True	False	False	True	0.9782624000072246
video_on	action	31	eeg	5	RkJ8Xinniqc	Archery	Participating_in_sports&Exercise&Recreation	Sports, Exercise, and Recreation	Participating in Sports, Exercise, or Recreation	Playing sports	250	1	True	True	True	True	0.6414245000050869
video_on	action	31	eeg	5	n6I_aaMc978	Rollerblading	Participating_in_sports&Exercise&Recreation	Sports, Exercise, and Recreation	Participating in Sports, Exercise, or Recreation	Playing sports	359	1	True	True	False	False	0.5251848999905633
video_on	action	31	eeg	5	j93fpQXZadM	Doing fencing	Participating_in_sports&Exercise&Recreation	Sports, Exercise, and Recreation	Participating in Sports, Exercise, or Recreation	Fencing	309	1	True	True	True	True	0.4752631000010296
video_on	action	31	eeg	5	nVzVClTASAQ	Baking cookies	Food&Drink_prep.&Presentation&Clean-up	Eating and drinking Activities	Food & Drink Prep., Presentation, & Clean-up	Food and drink preparation	276	5	True	False	False	True	0.9414504000014858
video_on	action	31	eeg	5	wFSZDnhXlnc	Doing karate	Participating_in_sports&Exercise&Recreation	Sports, Exercise, and Recreation	Participating in Sports, Exercise, or Recreation	Participating in martial arts	99	1	True	True	True	True	0.5719544000021415
video_on	action	31	eeg	5	E2OpjtrFHvk	Doing kickboxing	Participating_in_sports&Exercise&Recreation	Sports, Exercise, and Recreation	Participating in Sports, Exercise, or Recreation	Participating in martial arts	70	1	True	True	True	True	0.5865473000012571
video_on	action	31	eeg	5	hawWs82G_JQ	Arm wrestling	Participating_in_sports&Exercise&Recreation	Sports, Exercise, and Recreation	Participating in Sports, Exercise, or Recreation	Wrestling	271	1	True	True	False	False	0.5772536000004038
video_on	action	31	eeg	5	pysU2RDPQ4o	Ice fishing	Participating_in_sports&Exercise&Recreation	Sports, Exercise, and Recreation	Participating in Sports, Exercise, or Recreation	Fishing	324	1	True	True	False	False	0.4671161000005668
video_on	action	31	eeg	5	wCbjoKF6Itw	Fixing the roof	Exterior_maintenance&Repair&Decoration	Household Activities	Exterior Maintenance, Repair, & Decoration	Exterior repair, improvements, & decoration	311	12	True	False	False	True	0.5368630000011763
video_on	action	31	eeg	5	7xFYdEkbdGI	Building sandcastles	Arts&Entertainment	Socializing, Relaxing, and Leisure	Arts and Entertainment	Beach activities	286	2	True	False	False	True	0.790629999988596
video_on	action	31	eeg	5	Vq6iEpiNaAs	Elliptical trainer	Participating_in_sports&Exercise&Recreation	Sports, Exercise, and Recreation	Participating in Sports, Exercise, or Recreation	Using cardiovascular equipment	308	1	False	True	False	False	0.0
video_on	action	31	eeg	5	qTIunXSn6b4	Playing violin	Arts&Entertainment	Socializing, Relaxing, and Leisure	Arts and Entertainment	Playing musical instruments	234	2	True	False	False	True	0.0050697000115178
video_on	action	31	eeg	5	SqgJrLKD4Dg	Wrapping presents	Household_management	Household Activities	Household Management	Household & personal organization and planning	179	13	True	False	False	True	0.5659166999976151
video_on	action	31	eeg	5	arkjrThmwzQ	Swinging at the playground	Arts&Entertainment	Socializing, Relaxing, and Leisure	Arts and Entertainment	Park activities	378	2	True	False	False	True	0.5572447000013199
video_on	action	31	eeg	5	TznDGXXwiW0	Playing saxophone	Arts&Entertainment	Socializing, Relaxing, and Leisure	Arts and Entertainment	Playing musical instruments	109	2	True	False	False	True	0.6622640999994474
video_on	action	31	eeg	5	YrIAPp9z85s	Drum corps	Arts&Entertainment	Socializing, Relaxing, and Leisure	Arts and Entertainment	Playing musical instruments	307	2	True	False	False	True	0.5321384999988368
video_on	action	31	eeg	5	iPqst-JFuYU	BMX	Participating_in_sports&Exercise&Recreation	Sports, Exercise, and Recreation	Participating in Sports, Exercise, or Recreation	Biking	274	1	True	True	True	True	0.4777636999933747
video_on	action	31	eeg	5	H7mm8J5QpbU	Waxing skis	Appliances&Tools&Toys	Household Activities	Appliances, Tools, and Toys	Appliance, tool, and toy set-up, repair, & maintenance (by self)	387	10	True	False	False	True	0.514389799995115
video_on	action	31	eeg	5	WSQyvFtm2kE	Painting fence	Exterior_maintenance&Repair&Decoration	Household Activities	Exterior Maintenance, Repair, & Decoration	Painting fence	336	12	True	False	False	True	0.0050889999984065
video_on	action	31	eeg	5	CA4cPlVIzXo	Spread mulch	Lawn&Garden&Houseplants	Household Activities	Lawn, Garden, and Houseplants	Lawn, garden, and houseplant care	374	9	True	False	False	True	0.5666420000052312
video_on	action	31	eeg	5	RI2R4bCXiF8	Painting	Interior_maintenance&Repair&Decoration	Household Activities	Interior Maintenance, Repair, & Decoration	Interior arrangement, decoration, & repairs	217	7	True	False	False	True	0.5893283000041265
video_on	action	31	eeg	5	7Y7mqO_8ajs	Skiing	Participating_in_sports&Exercise&Recreation	Sports, Exercise, and Recreation	Participating in Sports, Exercise, or Recreation	Skiing, ice skating, snowboarding	369	1	True	True	True	True	0.6027333999954863
video_on	action	31	eeg	5	NlMl-AFw0Xg	Preparing pasta	Food&Drink_prep.&Presentation&Clean-up	Eating and drinking Activities	Food & Drink Prep., Presentation, & Clean-up	Food and drink preparation	186	5	True	False	False	True	0.6345447000057902
video_on	action	31	eeg	5	GhP9_WbGxXk	Trimming branches or hedges	Lawn&Garden&Houseplants	Household Activities	Lawn, Garden, and Houseplants	Lawn, garden, and houseplant care	381	9	True	False	False	True	0.5593624000030104
video_on	action	31	eeg	5	KP_qRYFPjPo	Riding bumper cars	Relaxing&Leisure	Socializing, Relaxing, and Leisure	Relaxing and Leisure	Playing games	356	3	True	False	False	True	0.652222000004258
video_on	action	31	eeg	5	GTodm5C75IA	Cutting the grass	Lawn&Garden&Houseplants	Household Activities	Lawn, Garden, and Houseplants	Lawn, garden, and houseplant care	301	9	True	False	False	True	0.7207199999975273
video_on	action	31	eeg	5	v7YhMy1qvfA	Windsurfing	Participating_in_sports&Exercise&Recreation	Sports, Exercise, and Recreation	Participating in Sports, Exercise, or Recreation	Participating in water sports	237	1	True	True	True	True	0.6897816999990027
video_on	action	31	eeg	5	N908TwOz430	Playing bagpipes	Arts&Entertainment	Socializing, Relaxing, and Leisure	Arts and Entertainment	Playing musical instruments	136	2	True	False	False	True	0.674919899989618
video_on	action	31	eeg	5	YNZOSBXQ2T4	Playing pool	Relaxing&Leisure	Socializing, Relaxing, and Leisure	Relaxing and Leisure	Playing games	348	3	True	False	True	False	0.6137153000017861
video_on	action	31	eeg	5	vEOm700voKI	Carving jack-o-lanterns	Interior_maintenance&Repair&Decoration	Household Activities	Interior Maintenance, Repair, & Decoration	Interior arrangement, decoration, & repairs	295	7	True	False	False	True	0.641543299992918
video_on	action	31	eeg	5	dZ0FL1Z8YxA	Making a cake	Food&Drink_prep.&Presentation&Clean-up	Eating and drinking Activities	Food & Drink Prep., Presentation, & Clean-up	Food and drink preparation	332	5	True	False	False	True	0.6079473999998299
video_on	action	31	eeg	5	FgzMMfyWHu8	Snow tubing	Participating_in_sports&Exercise&Recreation	Sports, Exercise, and Recreation	Participating in Sports, Exercise, or Recreation	Skiing, ice skating, snowboarding	372	1	True	True	False	False	0.5758151000045473
video_on	action	31	eeg	5	a2lJMD7nQWs	Doing crunches	Participating_in_sports&Exercise&Recreation	Sports, Exercise, and Recreation	Participating in Sports, Exercise, or Recreation	Working out	305	1	True	True	False	False	0.782296099991072
video_on	action	31	eeg	5	1jK3o6yl8D8	Capoeira	Participating_in_sports&Exercise&Recreation	Sports, Exercise, and Recreation	Participating in Sports, Exercise, or Recreation	Participating in martial arts	294	1	True	True	True	True	0.7587281000014627
video_on	action	31	eeg	5	42igNwMvxzw	Making an omelette	Food&Drink_prep.&Presentation&Clean-up	Eating and drinking Activities	Food & Drink Prep., Presentation, & Clean-up	Food and drink preparation	334	5	False	False	False	True	0.0
video_on	action	31	eeg	5	_bvWPqiUQUk	Grooming horse	Animals&Pets	Household Activities	Animals and Pets	Walking / exercising / playing with animals	95	8	True	False	False	True	0.0050751999951899
video_on	action	31	eeg	5	YEz7Or2hE60	Using uneven bars	Participating_in_sports&Exercise&Recreation	Sports, Exercise, and Recreation	Participating in Sports, Exercise, or Recreation	Doing gymnastics	192	1	True	True	True	True	0.5495181000005687
video_on	action	31	eeg	5	dlhqSqB5iic	Putting in contact lenses	Grooming	Personal Care	Grooming	Washing, dressing and grooming oneself	351	4	False	False	False	True	0.0
video_on	action	31	eeg	6	ip0LSAcZ1-g	Playing lacrosse	Participating_in_sports&Exercise&Recreation	Sports, Exercise, and Recreation	Participating in Sports, Exercise, or Recreation	Playing racquet sports	209	1	True	True	True	True	0.7112168000021484
video_on	action	31	eeg	6	3GeJAmgbpLc	Walking the dog	Animals&Pets	Household Activities	Animals and Pets	Walking / exercising / playing with animals	221	8	True	False	False	True	0.5192960999993375
video_on	action	31	eeg	6	qT7mWtM61QI	Polishing forniture	Housework	Household Activities	Housework	Interior cleaning	156	6	True	False	False	True	0.7649606000049971
video_on	action	31	eeg	6	BxhqEv0-Qq0	Table soccer	Relaxing&Leisure	Socializing, Relaxing, and Leisure	Relaxing and Leisure	Playing games	379	3	True	False	False	True	0.5755180999985896
video_on	action	31	eeg	6	XYUhdA0U8C4	Making a lemonade	Food&Drink_prep.&Presentation&Clean-up	Eating and drinking Activities	Food & Drink Prep., Presentation, & Clean-up	Food and drink preparation	333	5	True	False	False	True	0.7067164000036428
