event_name	task	subject	session	run	video_id	class_name	raw_superclass_name	superclass_level0	superclass_level1	superclass_level2	class_id	superclass_id	is_resp	stim_is_sports	resp_is_sports	resp_is_right	resp_time
video_on	action	25	meg	1	zoWs3c0Wtp0	Preparing pasta	Food&Drink_prep.&Presentation&Clean-up	Eating and drinking Activities	Food & Drink Prep., Presentation, & Clean-up	Food and drink preparation	186	5	True	False	False	True	0.4821102392161265
video_on	action	25	meg	1	Vu6F6C5zzRc	Snatch	Participating_in_sports&Exercise&Recreation	Sports, Exercise, and Recreation	Participating in Sports, Exercise, or Recreation	Weightlifting	79	1	True	True	True	True	0.4345071474672295
video_on	action	25	meg	1	mG8rELEiAPg	Kite flying	Relaxing&Leisure	Socializing, Relaxing, and Leisure	Relaxing and Leisure	Playing games	327	3	True	False	True	False	0.4324526331038214
video_on	action	25	meg	1	F2UpJTeC4wo	Playing congas	Arts&Entertainment	Socializing, Relaxing, and Leisure	Arts and Entertainment	Playing musical instruments	345	2	True	False	True	False	0.6602166507509537
video_on	action	25	meg	1	80fZSTQXm_0	Welding	Appliances&Tools&Toys	Household Activities	Appliances, Tools, and Toys	Appliance, tool, and toy set-up, repair, & maintenance (by self)	388	10	True	False	False	True	0.4500126029888633
video_on	action	25	meg	1	1auDJ3w-qGg	Tumbling	Participating_in_sports&Exercise&Recreation	Sports, Exercise, and Recreation	Participating in Sports, Exercise, or Recreation	Doing gymnastics	258	1	True	True	True	True	0.5892456466681324
video_on	action	25	meg	1	wA4GXeAj7rs	Archery	Participating_in_sports&Exercise&Recreation	Sports, Exercise, and Recreation	Participating in Sports, Exercise, or Recreation	Playing sports	250	1	True	True	True	True	0.3567084904934745
video_on	action	25	meg	1	cVtLajEVKf0	Skateboarding	Participating_in_sports&Exercise&Recreation	Sports, Exercise, and Recreation	Participating in Sports, Exercise, or Recreation	Playing sports	176	1	True	True	True	True	0.5626163512933999
video_on	action	25	meg	1	earAubWy0-4	Throwing darts	Relaxing&Leisure	Socializing, Relaxing, and Leisure	Relaxing and Leisure	Playing games	380	3	True	False	True	False	0.6850030413188506
video_on	action	25	meg	1	r8ii6mcHKs4	Shuffleboard	Relaxing&Leisure	Socializing, Relaxing, and Leisure	Relaxing and Leisure	Playing games	368	3	True	False	False	True	0.7461177496879827
video_on	action	25	meg	1	s1A1zReCTAY	Making a cake	Food&Drink_prep.&Presentation&Clean-up	Eating and drinking Activities	Food & Drink Prep., Presentation, & Clean-up	Food and drink preparation	332	5	True	False	False	True	0.4933617693022825
video_on	action	25	meg	1	tIoB0c8AmsU	Waxing skis	Appliances&Tools&Toys	Household Activities	Appliances, Tools, and Toys	Appliance, tool, and toy set-up, repair, & maintenance (by self)	387	10	True	False	False	True	0.5227115001180209
video_on	action	25	meg	1	mXLWvUAiqfU	Playing water polo	Participating_in_sports&Exercise&Recreation	Sports, Exercise, and Recreation	Participating in Sports, Exercise, or Recreation	Participating in water sports	130	1	True	True	True	True	0.6195052079565357
video_on	action	25	meg	1	5KcTr-MVn7w	Fixing the roof	Exterior_maintenance&Repair&Decoration	Household Activities	Exterior Maintenance, Repair, & Decoration	Exterior repair, improvements, & decoration	311	12	True	False	False	True	0.9753243950253818
video_on	action	25	meg	1	OiwXcxv8vfs	Wakeboarding	Participating_in_sports&Exercise&Recreation	Sports, Exercise, and Recreation	Participating in Sports, Exercise, or Recreation	Participating in water sports	385	1	True	True	True	True	0.2908828283834737
video_on	action	25	meg	1	rKWTN8R5HyU	Using the balance beam	Participating_in_sports&Exercise&Recreation	Sports, Exercise, and Recreation	Participating in Sports, Exercise, or Recreation	Doing gymnastics	180	1	True	True	True	True	0.4366570521669928
video_on	action	25	meg	1	E08xx-RBQ44	Kneeling	Participating_in_sports&Exercise&Recreation	Sports, Exercise, and Recreation	Participating in Sports, Exercise, or Recreation	Working out	328	1	True	True	True	True	0.5423063629423268
video_on	action	25	meg	1	PXOo7ls7uWM	Waterskiing	Participating_in_sports&Exercise&Recreation	Sports, Exercise, and Recreation	Participating in Sports, Exercise, or Recreation	Participating in water sports	386	1	True	True	True	True	0.3817454316013027
video_on	action	25	meg	1	SpqtWCsuz8I	Playing flauta	Arts&Entertainment	Socializing, Relaxing, and Leisure	Arts and Entertainment	Playing musical instruments	149	2	True	False	False	True	0.42905420192983
video_on	action	25	meg	1	LrPHgXPMlR0	High jump	Participating_in_sports&Exercise&Recreation	Sports, Exercise, and Recreation	Participating in Sports, Exercise, or Recreation	Playing sports	195	1	True	True	True	True	0.4212155926798004
video_on	action	25	meg	1	268bsjUO0ZQ	Paintball	Participating_in_sports&Exercise&Recreation	Sports, Exercise, and Recreation	Participating in Sports, Exercise, or Recreation	Playing sports	141	1	True	True	False	False	0.3647988577431533
video_on	action	25	meg	1	iQpxOHIcBLk	Ballet	Arts&Entertainment	Socializing, Relaxing, and Leisure	Arts and Entertainment	Attending arts and entertainment	229	2	True	False	False	True	0.676888222747948
video_on	action	25	meg	1	JfpHH46XKaI	Tug of war	Relaxing&Leisure	Socializing, Relaxing, and Leisure	Relaxing and Leisure	Playing games	382	3	True	False	True	False	0.783898958703503
video_on	action	25	meg	1	SglXCKowaME	Disc dog	Animals&Pets	Household Activities	Animals and Pets	Walking / exercising / playing with animals	303	8	False	False	False	True	0.0
video_on	action	25	meg	1	DdHkU4eaebM	Skiing	Participating_in_sports&Exercise&Recreation	Sports, Exercise, and Recreation	Participating in Sports, Exercise, or Recreation	Skiing, ice skating, snowboarding	369	1	True	True	True	True	0.0051027785521
video_on	action	25	meg	1	mbfQwK1REV4	Hitting a pinata	Relaxing&Leisure	Socializing, Relaxing, and Leisure	Relaxing and Leisure	Playing games	321	3	True	False	False	True	0.5423308142344467
video_on	action	25	meg	1	UfO_1l6Nx1s	Javelin throw	Participating_in_sports&Exercise&Recreation	Sports, Exercise, and Recreation	Participating in Sports, Exercise, or Recreation	Playing sports	116	1	True	True	True	True	0.4063682096602861
video_on	action	25	meg	1	HrPozvZuCfo	Hanging wallpaper	Interior_maintenance&Repair&Decoration	Household Activities	Interior Maintenance, Repair, & Decoration	Interior arrangement, decoration, & repairs	319	7	True	False	False	True	0.9464093542774208
video_on	action	25	meg	1	_9uSnARV-So	Spread mulch	Lawn&Garden&Houseplants	Household Activities	Lawn, Garden, and Houseplants	Lawn, garden, and houseplant care	374	9	True	False	False	True	0.4620366135786753
video_on	action	25	meg	1	J6-rLsT975U	Shoveling snow	Exterior_maintenance&Repair&Decoration	Household Activities	Exterior Maintenance, Repair, & Decoration	Exterior cleaning	183	12	True	False	False	True	1.110162238997873
video_on	action	25	meg	1	3HZWvvaCBm4	Shaving	Grooming	Personal Care	Grooming	Washing, dressing and grooming oneself	190	4	True	False	False	True	0.4144084667786956
video_on	action	25	meg	1	Va3TIB5b_XQ	Cheerleading	Arts&Entertainment	Socializing, Relaxing, and Leisure	Arts and Entertainment	Dancing	140	2	True	False	True	False	0.5293498817482032
video_on	action	25	meg	1	jJBWxg5PMQ0	BMX	Participating_in_sports&Exercise&Recreation	Sports, Exercise, and Recreation	Participating in Sports, Exercise, or Recreation	Biking	274	1	True	True	True	True	0.5273557410109788
video_on	action	25	meg	1	m9aFvxz_jso	Using uneven bars	Participating_in_sports&Exercise&Recreation	Sports, Exercise, and Recreation	Participating in Sports, Exercise, or Recreation	Doing gymnastics	192	1	True	True	True	True	0.5447973785630893
video_on	action	25	meg	1	B43_2Qp37jY	Snow tubing	Participating_in_sports&Exercise&Recreation	Sports, Exercise, and Recreation	Participating in Sports, Exercise, or Recreation	Skiing, ice skating, snowboarding	372	1	True	True	True	True	0.7188174015027471
video_on	action	25	meg	1	KM2PVz9P2zY	Futsal	Participating_in_sports&Exercise&Recreation	Sports, Exercise, and Recreation	Participating in Sports, Exercise, or Recreation	Playing soccer	315	1	True	True	True	True	0.5380572674039286
video_on	action	25	meg	1	MdL2zTynF14	Braiding hair	Grooming	Personal Care	Grooming	Washing, dressing and grooming oneself	285	4	True	False	False	True	0.5033291524741799
video_on	action	25	meg	1	QOkisHuug0g	Raking leaves	Lawn&Garden&Houseplants	Household Activities	Lawn, Garden, and Houseplants	Lawn, garden, and houseplant care	354	9	True	False	False	True	0.6066015537362546
video_on	action	25	meg	1	HQNHx3bRU38	Spinning	Participating_in_sports&Exercise&Recreation	Sports, Exercise, and Recreation	Participating in Sports, Exercise, or Recreation	Using cardiovascular equipment	117	1	True	True	True	True	0.4233700254117138
video_on	action	25	meg	1	XUfo-6UDVfM	Dodgeball	Participating_in_sports&Exercise&Recreation	Sports, Exercise, and Recreation	Participating in Sports, Exercise, or Recreation	Playing sports	161	1	True	True	True	True	0.4235804274794645
video_on	action	25	meg	1	9bPuU6-DWEc	Playing beach volleyball	Participating_in_sports&Exercise&Recreation	Sports, Exercise, and Recreation	Participating in Sports, Exercise, or Recreation	Playing volleyball	341	1	True	True	True	True	0.5681360097078141
video_on	action	25	meg	1	mMa1myZjzVY	Playing racquetball	Participating_in_sports&Exercise&Recreation	Sports, Exercise, and Recreation	Participating in Sports, Exercise, or Recreation	Playing racquet sports	253	1	True	True	True	True	0.4067872026062105
video_on	action	25	meg	1	_Lt0iw5Xqlg	Riding bumper cars	Relaxing&Leisure	Socializing, Relaxing, and Leisure	Relaxing and Leisure	Playing games	356	3	True	False	False	True	0.9215357238135766
video_on	action	25	meg	1	fEHryIaKr9Y	Long jump	Participating_in_sports&Exercise&Recreation	Sports, Exercise, and Recreation	Participating in Sports, Exercise, or Recreation	Playing sports	80	1	True	True	True	True	0.434442547702929
video_on	action	25	meg	1	LHCkTHu0ao4	Cutting the grass	Lawn&Garden&Houseplants	Household Activities	Lawn, Garden, and Houseplants	Lawn, garden, and houseplant care	301	9	True	False	False	True	0.8076713743212167
video_on	action	25	meg	1	9Idx8MhJaHg	Mowing the lawn	Lawn&Garden&Houseplants	Household Activities	Lawn, Garden, and Houseplants	Lawn, garden, and houseplant care	218	9	True	False	False	True	0.401638841984095
video_on	action	25	meg	1	BPEhGyz1Q6A	Bullfighting	Participating_in_sports&Exercise&Recreation	Sports, Exercise, and Recreation	Participating in Sports, Exercise, or Recreation	Participating in rodeo competitions	288	1	True	True	True	True	0.6108195568376686
video_on	action	25	meg	1	oSgbMUEaOFk	Vacuuming floor	Housework	Household Activities	Housework	Interior cleaning	160	6	True	False	False	True	0.5364226515812334
video_on	action	25	meg	1	v_Unq3S9RxA	Plataform diving	Participating_in_sports&Exercise&Recreation	Sports, Exercise, and Recreation	Participating in Sports, Exercise, or Recreation	Participating in water sports	233	1	True	True	True	True	0.5763154280430172
video_on	action	25	meg	1	pKEh3MOSs88	Ice fishing	Participating_in_sports&Exercise&Recreation	Sports, Exercise, and Recreation	Participating in Sports, Exercise, or Recreation	Fishing	324	1	True	True	False	False	1.0893254907859955
video_on	action	25	meg	1	8YQ4iPsgvE0	Smoking a cigarette	Relaxing&Leisure	Socializing, Relaxing, and Leisure	Relaxing and Leisure	Tobacco and drug use	201	3	True	False	False	True	0.3134236221085302
video_on	action	25	meg	1	wQi5084vU0o	Playing harmonica	Arts&Entertainment	Socializing, Relaxing, and Leisure	Arts and Entertainment	Playing musical instruments	100	2	True	False	False	True	0.68094865072635
video_on	action	25	meg	1	wnHPSRWcs3I	Powerbocking	Participating_in_sports&Exercise&Recreation	Sports, Exercise, and Recreation	Participating in Sports, Exercise, or Recreation	Playing sports	350	1	True	True	False	False	0.8495966287446208
video_on	action	25	meg	1	-ASBheUJyjg	Doing fencing	Participating_in_sports&Exercise&Recreation	Sports, Exercise, and Recreation	Participating in Sports, Exercise, or Recreation	Fencing	309	1	True	True	False	False	0.0053804971976205
video_on	action	25	meg	1	XCU46QMIEGI	Mixing drinks	Food&Drink_prep.&Presentation&Clean-up	Eating and drinking Activities	Food & Drink Prep., Presentation, & Clean-up	Food and drink preparation	244	5	True	False	False	True	0.0050970430602319
video_on	action	25	meg	1	NrpTpvxVMU4	Playing lacrosse	Participating_in_sports&Exercise&Recreation	Sports, Exercise, and Recreation	Participating in Sports, Exercise, or Recreation	Playing racquet sports	209	1	True	True	True	True	0.4335155107546597
video_on	action	25	meg	1	GyKl5YnTH4Y	Playing squash	Participating_in_sports&Exercise&Recreation	Sports, Exercise, and Recreation	Participating in Sports, Exercise, or Recreation	Playing racquet sports	194	1	True	True	True	True	0.6764064412564039
video_on	action	25	meg	1	kr7ycEYn7WM	Using the rowing machine	Participating_in_sports&Exercise&Recreation	Sports, Exercise, and Recreation	Participating in Sports, Exercise, or Recreation	Using cardiovascular equipment	384	1	True	True	False	False	0.951941691164393
video_on	action	25	meg	1	mjB3DJFIP_M	Cleaning sink	Interior_maintenance&Repair&Decoration	Household Activities	Interior Maintenance, Repair, & Decoration	Interior arrangement, decoration, & repairs	297	7	True	False	False	True	0.0050961374363396
video_on	action	25	meg	1	3HaK9BQo40o	Cleaning windows	Housework	Household Activities	Housework	Interior cleaning	143	6	True	False	False	True	0.3468404219602234
video_on	action	25	meg	1	HzF5YsRBxi4	Playing violin	Arts&Entertainment	Socializing, Relaxing, and Leisure	Arts and Entertainment	Playing musical instruments	234	2	True	False	False	True	0.42646689034882
video_on	action	25	meg	1	4P5VqsEim9U	Doing kickboxing	Participating_in_sports&Exercise&Recreation	Sports, Exercise, and Recreation	Participating in Sports, Exercise, or Recreation	Participating in martial arts	70	1	True	True	True	True	0.601924711081665
video_on	action	25	meg	1	G6wr8DZXnPc	Putting on makeup	Grooming	Personal Care	Grooming	Washing, dressing and grooming oneself	76	4	True	False	False	True	0.3940912336111069
video_on	action	25	meg	1	dNmIRnZxlao	Blow-drying hair	Grooming	Personal Care	Grooming	Washing, dressing and grooming oneself	281	4	True	False	False	True	0.8593810798192862
video_on	action	25	meg	1	e6p54xCYmFE	Playing ice hockey	Participating_in_sports&Exercise&Recreation	Sports, Exercise, and Recreation	Participating in Sports, Exercise, or Recreation	Playing hockey	347	1	True	True	True	True	0.5949506521283183
video_on	action	25	meg	1	JBpXDC69Xqg	Doing crunches	Participating_in_sports&Exercise&Recreation	Sports, Exercise, and Recreation	Participating in Sports, Exercise, or Recreation	Working out	305	1	True	True	True	True	0.3332029262965079
video_on	action	25	meg	1	_1rLkiLDYwQ	Using the pommel horse	Participating_in_sports&Exercise&Recreation	Sports, Exercise, and Recreation	Participating in Sports, Exercise, or Recreation	Doing gymnastics	114	1	True	True	True	True	0.820073927519843
video_on	action	25	meg	1	aOjKCyHP7_k	Triple jump	Participating_in_sports&Exercise&Recreation	Sports, Exercise, and Recreation	Participating in Sports, Exercise, or Recreation	Playing sports	155	1	True	True	False	False	0.7560887552390341
video_on	action	25	meg	1	aAqtAvCF7fM	Drinking coffee	Food&Drink_prep.&Presentation&Clean-up	Eating and drinking Activities	Food & Drink Prep., Presentation, & Clean-up	Eating and Drinking	68	5	True	False	False	True	0.8842770485207438
video_on	action	25	meg	1	ZHxJ2Uc4Peo	Sharpening knives	Appliances&Tools&Toys	Household Activities	Appliances, Tools, and Toys	Appliance, tool, and toy set-up, repair, & maintenance (by self)	365	10	True	False	False	True	0.5564087354578078
video_on	action	25	meg	1	PNhiAZLmP94	Making a lemonade	Food&Drink_prep.&Presentation&Clean-up	Eating and drinking Activities	Food & Drink Prep., Presentation, & Clean-up	Food and drink preparation	333	5	True	False	False	True	0.8918955958797596
video_on	action	25	meg	1	y37rX0Y7XL8	Putting in contact lenses	Grooming	Personal Care	Grooming	Washing, dressing and grooming oneself	351	4	True	False	False	True	0.969997328473255
video_on	action	25	meg	1	e3aroUs3Cj4	Doing motocross	Participating_in_sports&Exercise&Recreation	Sports, Exercise, and Recreation	Participating in Sports, Exercise, or Recreation	Playing sports	243	1	True	True	False	False	0.0050976467900909
video_on	action	25	meg	1	KRiYG_WalAo	Clean and jerk	Participating_in_sports&Exercise&Recreation	Sports, Exercise, and Recreation	Participating in Sports, Exercise, or Recreation	Weightlifting	84	1	True	True	True	True	0.6624450411181897
video_on	action	25	meg	1	dh2SUC5l_iA	Grooming dog	Animals&Pets	Household Activities	Animals and Pets	Care for animals and pets (not veterinary care)	317	8	True	False	False	True	1.2364357828337234
video_on	action	25	meg	1	5wamcAMByD8	Bathing dog	Animals&Pets	Household Activities	Animals and Pets	Care for animals and pets (not veterinary care)	90	8	True	False	False	True	0.4614528006641194
video_on	action	25	meg	1	Q1zz9W4GnEc	Painting fence	Exterior_maintenance&Repair&Decoration	Household Activities	Exterior Maintenance, Repair, & Decoration	Painting fence	336	12	False	False	False	True	0.0
video_on	action	25	meg	1	_DgU4MifxjM	Painting furniture	Interior_maintenance&Repair&Decoration	Household Activities	Interior Maintenance, Repair, & Decoration	Building and repairing furniture	337	7	True	False	False	True	0.0051151551306247
video_on	action	25	meg	1	9hiU-UBlst0	Playing rubik cube	Relaxing&Leisure	Socializing, Relaxing, and Leisure	Relaxing and Leisure	Playing games	349	3	True	False	False	True	0.3098688231839333
video_on	action	25	meg	1	tJyi2R8J6bg	Rope skipping	Participating_in_sports&Exercise&Recreation	Sports, Exercise, and Recreation	Participating in Sports, Exercise, or Recreation	Working out	361	1	True	True	True	True	0.4293343355238903
video_on	action	25	meg	1	JoGPqzukskI	Playing badminton	Participating_in_sports&Exercise&Recreation	Sports, Exercise, and Recreation	Participating in Sports, Exercise, or Recreation	Playing racquet sports	268	1	True	True	True	True	0.4541995136823971
video_on	action	25	meg	1	PVhFgUbyXqs	Brushing teeth	Grooming	Personal Care	Grooming	Washing, dressing and grooming oneself	148	4	True	False	False	True	0.4864547250617761
video_on	action	25	meg	1	gn4vWeDDXKE	Volleyball	Participating_in_sports&Exercise&Recreation	Sports, Exercise, and Recreation	Participating in Sports, Exercise, or Recreation	Playing volleyball	123	1	True	True	True	True	0.5504731028049719
video_on	action	25	meg	1	kCb2WxZQDGo	Smoking hookah	Relaxing&Leisure	Socializing, Relaxing, and Leisure	Relaxing and Leisure	Tobacco and drug use	189	3	True	False	False	True	0.4466289633419364
video_on	action	25	meg	1	JDkD9hSJmg8	Baton twirling	Participating_in_sports&Exercise&Recreation	Sports, Exercise, and Recreation	Participating in Sports, Exercise, or Recreation	Playing sports	277	1	True	True	True	True	0.4009744302602485
video_on	action	25	meg	1	sPHGg6a7LD4	Scuba diving	Participating_in_sports&Exercise&Recreation	Sports, Exercise, and Recreation	Participating in Sports, Exercise, or Recreation	Participating in water sports	364	1	True	True	True	True	0.4403971980791539
video_on	action	25	meg	1	Zo8sNZXiKxQ	Walking the dog	Animals&Pets	Household Activities	Animals and Pets	Walking / exercising / playing with animals	221	8	True	False	False	True	0.7453965867753141
video_on	action	25	meg	1	8IbpZfrifHk	Having an ice cream	Food&Drink_prep.&Presentation&Clean-up	Eating and drinking Activities	Food & Drink Prep., Presentation, & Clean-up	Eating and Drinking	320	5	True	False	False	True	0.005351216008421
video_on	action	25	meg	1	eUK87_w926k	Doing step aerobics	Participating_in_sports&Exercise&Recreation	Sports, Exercise, and Recreation	Participating in Sports, Exercise, or Recreation	Doing aerobics	230	1	True	True	True	True	0.3827729906479362
video_on	action	25	meg	1	sa4DnNtTE9c	Hurling	Participating_in_sports&Exercise&Recreation	Sports, Exercise, and Recreation	Participating in Sports, Exercise, or Recreation	Playing sports	323	1	False	True	False	False	0.0
video_on	action	25	eeg	1	AEWQfjiOuKk	Cricket	Participating_in_sports&Exercise&Recreation	Sports, Exercise, and Recreation	Participating in Sports, Exercise, or Recreation	Playing sports	82	1	True	True	True	True	0.0050713999953586
video_on	action	25	eeg	1	9ZR6Fsluei8	Dodgeball	Participating_in_sports&Exercise&Recreation	Sports, Exercise, and Recreation	Participating in Sports, Exercise, or Recreation	Playing sports	161	1	True	True	True	True	0.4548952999757603
video_on	action	25	eeg	1	oFP1jEwsRGI	Preparing pasta	Food&Drink_prep.&Presentation&Clean-up	Eating and drinking Activities	Food & Drink Prep., Presentation, & Clean-up	Food and drink preparation	186	5	True	False	False	True	0.6419276999949943
video_on	action	25	eeg	1	JD97eap6HqI	Belly dance	Arts&Entertainment	Socializing, Relaxing, and Leisure	Arts and Entertainment	Dancing	247	2	True	False	True	False	0.6795247999834828
video_on	action	25	eeg	1	BkFsD0ZXqqQ	Bungee jumping	Participating_in_sports&Exercise&Recreation	Sports, Exercise, and Recreation	Participating in Sports, Exercise, or Recreation	Playing sports	154	1	True	True	True	True	0.5698295999900438
video_on	action	25	eeg	1	l7tyTnx0-bk	Shot put	Participating_in_sports&Exercise&Recreation	Sports, Exercise, and Recreation	Participating in Sports, Exercise, or Recreation	Playing sports	169	1	True	True	True	True	0.8054219000041485
video_on	action	25	eeg	1	i3xq36tT_Ic	Playing accordion	Arts&Entertainment	Socializing, Relaxing, and Leisure	Arts and Entertainment	Playing musical instruments	267	2	True	False	False	True	0.5667369000148028
video_on	action	25	eeg	1	7yS_o5hIfQI	Playing rubik cube	Relaxing&Leisure	Socializing, Relaxing, and Leisure	Relaxing and Leisure	Playing games	349	3	True	False	False	True	0.6825580000004265
video_on	action	25	eeg	1	hEqkWbAmFR8	Spread mulch	Lawn&Garden&Houseplants	Household Activities	Lawn, Garden, and Houseplants	Lawn, garden, and houseplant care	374	9	True	False	False	True	0.8643140000058338
video_on	action	25	eeg	1	F2aTte2CozI	Zumba	Participating_in_sports&Exercise&Recreation	Sports, Exercise, and Recreation	Participating in Sports, Exercise, or Recreation	Doing aerobics	69	1	True	True	True	True	0.7298714999924414
video_on	action	25	eeg	1	Uxd6HGaBYF8	Scuba diving	Participating_in_sports&Exercise&Recreation	Sports, Exercise, and Recreation	Participating in Sports, Exercise, or Recreation	Participating in water sports	364	1	True	True	True	True	0.5908682000008412
video_on	action	25	eeg	1	MtjS4--R2nQ	Doing nails	Grooming	Personal Care	Grooming	Washing, dressing and grooming oneself	167	4	True	False	False	True	0.5901823999884073
video_on	action	25	eeg	1	OYOWq0nOUAM	Chopping wood	Interior_maintenance&Repair&Decoration	Household Activities	Interior Maintenance, Repair, & Decoration	Heating and cooling	110	7	True	False	False	True	0.8722148999804631
video_on	action	25	eeg	1	Mlz94AtNJz8	Fixing bicycle	Vehicles	Household Activities	Vehicles	Vehicle repair and maintenance (by self)	171	11	True	False	False	True	0.5911292000091635
video_on	action	25	eeg	1	k5rmwxit5X0	Hanging wallpaper	Interior_maintenance&Repair&Decoration	Household Activities	Interior Maintenance, Repair, & Decoration	Interior arrangement, decoration, & repairs	319	7	True	False	False	True	0.6629371999879368
video_on	action	25	eeg	1	iEC04_j-Ua4	BMX	Participating_in_sports&Exercise&Recreation	Sports, Exercise, and Recreation	Participating in Sports, Exercise, or Recreation	Biking	274	1	True	True	True	True	0.6787852999987081
video_on	action	25	eeg	1	kjyS5nO0qRc	Powerbocking	Participating_in_sports&Exercise&Recreation	Sports, Exercise, and Recreation	Participating in Sports, Exercise, or Recreation	Playing sports	350	1	True	True	True	True	0.5618253999855369
video_on	action	25	eeg	1	j9kvKpFLLD0	Cleaning shoes	Housework	Household Activities	Housework	Sewing, repairing, & maintaining textiles	134	6	True	False	False	True	0.8525876999774482
video_on	action	25	eeg	1	wX7Seu6erCg	Playing congas	Arts&Entertainment	Socializing, Relaxing, and Leisure	Arts and Entertainment	Playing musical instruments	345	2	True	False	False	True	0.6615952999854926
video_on	action	25	eeg	1	xtPfTE2BQN0	Breakdancing	Arts&Entertainment	Socializing, Relaxing, and Leisure	Arts and Entertainment	Dancing	236	2	True	False	True	False	0.5457647000148427
video_on	action	25	eeg	1	1oeLKe1-2tY	Vacuuming floor	Housework	Household Activities	Housework	Interior cleaning	160	6	True	False	False	True	0.6363409000041429
video_on	action	25	eeg	1	WGuGAnfh24g	Futsal	Participating_in_sports&Exercise&Recreation	Sports, Exercise, and Recreation	Participating in Sports, Exercise, or Recreation	Playing soccer	315	1	True	True	True	True	0.6315959999919869
video_on	action	25	eeg	1	RLse8Sa-k8w	Hammer throw	Participating_in_sports&Exercise&Recreation	Sports, Exercise, and Recreation	Participating in Sports, Exercise, or Recreation	Playing sports	224	1	True	True	True	True	0.58216910000192
video_on	action	25	eeg	1	aAR1EaFyzDM	Using the pommel horse	Participating_in_sports&Exercise&Recreation	Sports, Exercise, and Recreation	Participating in Sports, Exercise, or Recreation	Doing gymnastics	114	1	True	True	True	True	0.9255896999966352
video_on	action	25	eeg	1	EXiyZK6HJ3A	Playing polo	Participating_in_sports&Exercise&Recreation	Sports, Exercise, and Recreation	Participating in Sports, Exercise, or Recreation	Participating in equestrian sports	75	1	True	True	True	True	0.6411995999806095
video_on	action	25	eeg	1	Cv8VmRCERYc	Putting on shoes	Grooming	Personal Care	Grooming	Washing, dressing and grooming oneself	352	4	True	False	False	True	0.550768999994034
video_on	action	25	eeg	1	1GOnfpJ5pss	Washing hands	Grooming	Personal Care	Grooming	Washing, dressing and grooming oneself	173	4	True	False	False	True	0.7340114999969956
video_on	action	25	eeg	1	xHu9sb3sLbg	Hula hoop	Relaxing&Leisure	Socializing, Relaxing, and Leisure	Relaxing and Leisure	Playing games	322	3	True	False	True	False	0.5665964000218082
video_on	action	25	eeg	1	v1GAuFL5oeE	Shuffleboard	Relaxing&Leisure	Socializing, Relaxing, and Leisure	Relaxing and Leisure	Playing games	368	3	True	False	False	True	0.7579247000103351
video_on	action	25	eeg	1	b0mr4doJI1s	Snow tubing	Participating_in_sports&Exercise&Recreation	Sports, Exercise, and Recreation	Participating in Sports, Exercise, or Recreation	Skiing, ice skating, snowboarding	372	1	True	True	True	True	0.6962830999982543
video_on	action	25	eeg	1	2TRcFpytYT8	Drinking coffee	Food&Drink_prep.&Presentation&Clean-up	Eating and drinking Activities	Food & Drink Prep., Presentation, & Clean-up	Eating and Drinking	68	5	True	False	False	True	0.7529515000060201
video_on	action	25	eeg	1	OSFpah4za0I	Doing kickboxing	Participating_in_sports&Exercise&Recreation	Sports, Exercise, and Recreation	Participating in Sports, Exercise, or Recreation	Participating in martial arts	70	1	True	True	True	True	0.6650013000180479
video_on	action	25	eeg	1	CRVrmgbzT4I	Polishing shoes	Housework	Household Activities	Housework	Sewing, repairing, & maintaining textiles	227	6	True	False	False	True	0.7517599000129849
video_on	action	25	eeg	1	SKWigzcQoJQ	Playing badminton	Participating_in_sports&Exercise&Recreation	Sports, Exercise, and Recreation	Participating in Sports, Exercise, or Recreation	Playing racquet sports	268	1	True	True	True	True	0.5943818000087049
video_on	action	25	eeg	1	1ID1rtsoqrE	Playing drums	Arts&Entertainment	Socializing, Relaxing, and Leisure	Arts and Entertainment	Playing musical instruments	346	2	True	False	False	True	0.7856138999923132
video_on	action	25	eeg	1	ByhWLPfDfAU	Playing flauta	Arts&Entertainment	Socializing, Relaxing, and Leisure	Arts and Entertainment	Playing musical instruments	149	2	True	False	False	True	0.942738499987172
video_on	action	25	eeg	1	Y_ikE_9EOsM	Elliptical trainer	Participating_in_sports&Exercise&Recreation	Sports, Exercise, and Recreation	Participating in Sports, Exercise, or Recreation	Using cardiovascular equipment	308	1	True	True	True	True	0.5279441000020597
video_on	action	25	eeg	1	znhraVlHvh4	Playing racquetball	Participating_in_sports&Exercise&Recreation	Sports, Exercise, and Recreation	Participating in Sports, Exercise, or Recreation	Playing racquet sports	253	1	True	True	True	True	0.6382374000095297
video_on	action	25	eeg	1	3w0Lw4naldM	Running a marathon	Participating_in_sports&Exercise&Recreation	Sports, Exercise, and Recreation	Participating in Sports, Exercise, or Recreation	Running	362	1	True	True	True	True	0.6726714999822434
video_on	action	25	eeg	1	p2Hx_-HXk_M	Javelin throw	Participating_in_sports&Exercise&Recreation	Sports, Exercise, and Recreation	Participating in Sports, Exercise, or Recreation	Playing sports	116	1	True	True	True	True	0.7444905999873299
video_on	action	25	eeg	1	tKhrUF0pMWI	Waterskiing	Participating_in_sports&Exercise&Recreation	Sports, Exercise, and Recreation	Participating in Sports, Exercise, or Recreation	Participating in water sports	386	1	True	True	True	True	0.5045708999969065
video_on	action	25	eeg	1	mzffdYp1aWc	Making a sandwich	Food&Drink_prep.&Presentation&Clean-up	Eating and drinking Activities	Food & Drink Prep., Presentation, & Clean-up	Food and drink preparation	129	5	True	False	False	True	0.6005263000261039
video_on	action	25	eeg	1	eMFZhcdu0ic	Smoking hookah	Relaxing&Leisure	Socializing, Relaxing, and Leisure	Relaxing and Leisure	Tobacco and drug use	189	3	True	False	False	True	0.7520437999919523
video_on	action	25	eeg	1	aWh5QZE8HFg	Skateboarding	Participating_in_sports&Exercise&Recreation	Sports, Exercise, and Recreation	Participating in Sports, Exercise, or Recreation	Playing sports	176	1	True	True	True	True	0.7196536999836098
video_on	action	25	eeg	1	t1wyr7R_374	Doing step aerobics	Participating_in_sports&Exercise&Recreation	Sports, Exercise, and Recreation	Participating in Sports, Exercise, or Recreation	Doing aerobics	230	1	True	True	True	True	1.0030420999974012
video_on	action	25	eeg	1	P4VLsvtJSDM	Tango	Arts&Entertainment	Socializing, Relaxing, and Leisure	Arts and Entertainment	Dancing	73	2	True	False	True	False	0.6562616000010166
video_on	action	25	eeg	1	c5BM2OtkSX4	Making an omelette	Food&Drink_prep.&Presentation&Clean-up	Eating and drinking Activities	Food & Drink Prep., Presentation, & Clean-up	Food and drink preparation	334	5	True	False	False	True	0.7431169000046793
video_on	action	25	eeg	1	4OjpWhen20U	Plataform diving	Participating_in_sports&Exercise&Recreation	Sports, Exercise, and Recreation	Participating in Sports, Exercise, or Recreation	Participating in water sports	233	1	True	True	True	True	0.8114617000101134
video_on	action	25	eeg	1	UAU0TWI1mpo	Throwing darts	Relaxing&Leisure	Socializing, Relaxing, and Leisure	Relaxing and Leisure	Playing games	380	3	True	False	True	False	0.8062568999885116
video_on	action	25	eeg	1	jAt8CrMPguk	Laying tile	Interior_maintenance&Repair&Decoration	Household Activities	Interior Maintenance, Repair, & Decoration	Interior arrangement, decoration, & repairs	330	7	True	False	False	True	0.7704440999950748
video_on	action	25	eeg	1	TsjMhDCFOSM	Building sandcastles	Arts&Entertainment	Socializing, Relaxing, and Leisure	Arts and Entertainment	Beach activities	286	2	True	False	False	True	0.8411089000001084
video_on	action	25	eeg	1	tFJLObgV5rY	Rollerblading	Participating_in_sports&Exercise&Recreation	Sports, Exercise, and Recreation	Participating in Sports, Exercise, or Recreation	Playing sports	359	1	True	True	True	True	0.6960195999999996
video_on	action	25	eeg	1	x_dtJq0RTvg	Fun sliding down	Arts&Entertainment	Socializing, Relaxing, and Leisure	Arts and Entertainment	Park activities	313	2	True	False	True	False	0.944241699995473
video_on	action	25	eeg	1	8DRZw1Sblb0	Swimming	Participating_in_sports&Exercise&Recreation	Sports, Exercise, and Recreation	Participating in Sports, Exercise, or Recreation	Participating in water sports	377	1	True	True	True	True	0.8253732000011951
video_on	action	25	eeg	1	674t-jyyKeg	Having an ice cream	Food&Drink_prep.&Presentation&Clean-up	Eating and drinking Activities	Food & Drink Prep., Presentation, & Clean-up	Eating and Drinking	320	5	True	False	False	True	0.9202466999995522
video_on	action	25	eeg	1	DFfgUuCRLew	Ice fishing	Participating_in_sports&Exercise&Recreation	Sports, Exercise, and Recreation	Participating in Sports, Exercise, or Recreation	Fishing	324	1	True	True	True	True	0.900624500005506
video_on	action	25	eeg	1	4i5PfOEvMxM	Walking the dog	Animals&Pets	Household Activities	Animals and Pets	Walking / exercising / playing with animals	221	8	True	False	True	False	0.972938399994746
video_on	action	25	eeg	1	WjobYy-BHUM	Playing harmonica	Arts&Entertainment	Socializing, Relaxing, and Leisure	Arts and Entertainment	Playing musical instruments	100	2	True	False	False	True	0.7825912999978755
video_on	action	25	eeg	1	qHXTO7PIwIg	Painting fence	Exterior_maintenance&Repair&Decoration	Household Activities	Exterior Maintenance, Repair, & Decoration	Painting fence	336	12	True	False	False	True	0.7899903999932576
video_on	action	25	eeg	1	Y0Jc4a9Pdwk	Doing motocross	Participating_in_sports&Exercise&Recreation	Sports, Exercise, and Recreation	Participating in Sports, Exercise, or Recreation	Playing sports	243	1	True	True	True	True	0.7816613999893889
video_on	action	25	eeg	1	ndYNrMvAN_Q	Blow-drying hair	Grooming	Personal Care	Grooming	Washing, dressing and grooming oneself	281	4	True	False	False	True	0.8628665000142064
video_on	action	25	eeg	1	bR19AY4rpxs	Plastering	Interior_maintenance&Repair&Decoration	Household Activities	Interior Maintenance, Repair, & Decoration	Interior arrangement, decoration, & repairs	340	7	True	False	False	True	0.6957013999926858
video_on	action	25	eeg	1	bowTFVvm7TM	Fixing the roof	Exterior_maintenance&Repair&Decoration	Household Activities	Exterior Maintenance, Repair, & Decoration	Exterior repair, improvements, & decoration	311	12	True	False	False	True	0.8230816000141203
video_on	action	25	eeg	1	7OBzh_ISAkQ	Hurling	Participating_in_sports&Exercise&Recreation	Sports, Exercise, and Recreation	Participating in Sports, Exercise, or Recreation	Playing sports	323	1	True	True	True	True	0.5673627999785822
video_on	action	25	eeg	1	AWZm6o6Ppi4	Beer pong	Relaxing&Leisure	Socializing, Relaxing, and Leisure	Relaxing and Leisure	Playing games	280	3	True	False	False	True	0.7660820999881253
video_on	action	25	eeg	1	wHOa5K0MsNs	Washing dishes	Food&Drink_prep.&Presentation&Clean-up	Eating and drinking Activities	Food & Drink Prep., Presentation, & Clean-up	Kitchen and food clean-up	213	5	True	False	False	True	0.7816184999828693
video_on	action	25	eeg	1	Vi9RaUTAkyc	Hitting a pinata	Relaxing&Leisure	Socializing, Relaxing, and Leisure	Relaxing and Leisure	Playing games	321	3	True	False	False	True	0.654664400004549
video_on	action	25	eeg	1	UQndP9MzSi8	Pole vault	Participating_in_sports&Exercise&Recreation	Sports, Exercise, and Recreation	Participating in Sports, Exercise, or Recreation	Playing sports	106	1	True	True	True	True	0.806276399991475
video_on	action	25	eeg	1	mlvkFePjQ_w	Table soccer	Relaxing&Leisure	Socializing, Relaxing, and Leisure	Relaxing and Leisure	Playing games	379	3	True	False	True	False	0.819394000020111
video_on	action	25	eeg	1	1XmRy05YFuU	Putting in contact lenses	Grooming	Personal Care	Grooming	Washing, dressing and grooming oneself	351	4	True	False	False	True	1.0002858000225388
video_on	action	25	eeg	1	1TAcBNTHQBM	Starting a campfire	Participating_in_sports&Exercise&Recreation	Sports, Exercise, and Recreation	Participating in Sports, Exercise, or Recreation	Playing sports	153	1	True	True	False	False	0.7672959000046831
video_on	action	25	eeg	1	qaMWyNx18uU	Sailing	Participating_in_sports&Exercise&Recreation	Sports, Exercise, and Recreation	Participating in Sports, Exercise, or Recreation	Participating in water sports	240	1	True	True	True	True	0.7684665000124369
video_on	action	25	eeg	1	5s0-zYL2_L4	Kite flying	Relaxing&Leisure	Socializing, Relaxing, and Leisure	Relaxing and Leisure	Playing games	327	3	True	False	True	False	0.869251299998723
video_on	action	25	eeg	1	EScnWy1oD7w	Painting furniture	Interior_maintenance&Repair&Decoration	Household Activities	Interior Maintenance, Repair, & Decoration	Building and repairing furniture	337	7	True	False	False	True	0.919687099987641
video_on	action	25	eeg	1	1DFmgtErOBo	Bullfighting	Participating_in_sports&Exercise&Recreation	Sports, Exercise, and Recreation	Participating in Sports, Exercise, or Recreation	Participating in rodeo competitions	288	1	True	True	True	True	0.8480982999899425
video_on	action	25	eeg	1	HQImt9Z5b44	Hand car wash	Vehicles	Household Activities	Vehicles	Vehicle repair and maintenance (by self)	318	11	True	False	False	True	0.7538778999878559
video_on	action	25	eeg	1	DfM_llQ92sE	Mowing the lawn	Lawn&Garden&Houseplants	Household Activities	Lawn, Garden, and Houseplants	Lawn, garden, and houseplant care	218	9	True	False	False	True	0.7591928000038024
video_on	action	25	eeg	1	vsFRwV5g-to	Paintball	Participating_in_sports&Exercise&Recreation	Sports, Exercise, and Recreation	Participating in Sports, Exercise, or Recreation	Playing sports	141	1	True	True	True	True	0.9427254000038374
video_on	action	25	eeg	1	FgbHRYiqLxo	Playing lacrosse	Participating_in_sports&Exercise&Recreation	Sports, Exercise, and Recreation	Participating in Sports, Exercise, or Recreation	Playing racquet sports	209	1	True	True	True	True	0.9771351999952458
video_on	action	25	eeg	1	8a52WAIFtpk	Sharpening knives	Appliances&Tools&Toys	Household Activities	Appliances, Tools, and Toys	Appliance, tool, and toy set-up, repair, & maintenance (by self)	365	10	True	False	False	True	0.9046777999901678
video_on	action	25	eeg	1	36Yy3z7Y6u4	Canoeing	Participating_in_sports&Exercise&Recreation	Sports, Exercise, and Recreation	Participating in Sports, Exercise, or Recreation	Boating	292	1	True	True	True	True	0.8137553000124171
video_on	action	25	eeg	1	y-1B9QS7Om8	Sumo	Participating_in_sports&Exercise&Recreation	Sports, Exercise, and Recreation	Participating in Sports, Exercise, or Recreation	Wrestling	375	1	True	True	True	True	0.7899779999861494
video_on	action	25	eeg	1	krk5yFteA_Y	Rope skipping	Participating_in_sports&Exercise&Recreation	Sports, Exercise, and Recreation	Participating in Sports, Exercise, or Recreation	Working out	361	1	True	True	True	True	0.7052846000005957
video_on	action	25	eeg	1	lHX_-4ipM-o	Riding bumper cars	Relaxing&Leisure	Socializing, Relaxing, and Leisure	Relaxing and Leisure	Playing games	356	3	True	False	False	True	0.968057400023099
video_on	action	25	eeg	1	3hd4v-hg3qM	Kayaking	Participating_in_sports&Exercise&Recreation	Sports, Exercise, and Recreation	Participating in Sports, Exercise, or Recreation	Participating in water sports	254	1	True	True	True	True	0.7942104999965522
video_on	action	25	eeg	1	zwWpGO5IbBA	Volleyball	Participating_in_sports&Exercise&Recreation	Sports, Exercise, and Recreation	Participating in Sports, Exercise, or Recreation	Playing volleyball	123	1	True	True	True	True	0.9394918000034522
video_on	action	25	eeg	1	VDt0aYjGsA0	Croquet	Participating_in_sports&Exercise&Recreation	Sports, Exercise, and Recreation	Participating in Sports, Exercise, or Recreation	Playing sports	299	1	True	True	True	True	0.7876455999794416
video_on	action	25	eeg	1	TuhkG7hyL2Y	Spinning	Participating_in_sports&Exercise&Recreation	Sports, Exercise, and Recreation	Participating in Sports, Exercise, or Recreation	Using cardiovascular equipment	117	1	True	True	True	True	0.7931898000242654
video_on	action	25	eeg	1	hd8U5gi_Jbg	Using the monkey bar	Arts&Entertainment	Socializing, Relaxing, and Leisure	Arts and Entertainment	Park activities	383	2	True	False	True	False	0.7533328999998048
video_on	action	25	eeg	1	JGQPVpl3KGI	Baton twirling	Participating_in_sports&Exercise&Recreation	Sports, Exercise, and Recreation	Participating in Sports, Exercise, or Recreation	Playing sports	277	1	False	True	False	False	0.0
video_on	action	25	meg	2	5J-K5CfUsgI	Playing accordion	Arts&Entertainment	Socializing, Relaxing, and Leisure	Arts and Entertainment	Playing musical instruments	267	2	True	False	False	True	0.4820646571170073
video_on	action	25	meg	2	YvPbEEakcj8	Breakdancing	Arts&Entertainment	Socializing, Relaxing, and Leisure	Arts and Entertainment	Dancing	236	2	True	False	False	True	0.005165868991753
video_on	action	25	meg	2	YF7YrD3u0Uw	Arm wrestling	Participating_in_sports&Exercise&Recreation	Sports, Exercise, and Recreation	Participating in Sports, Exercise, or Recreation	Wrestling	271	1	True	True	True	True	0.4110722204495687
video_on	action	25	meg	2	i5wYcJIV5r8	Running a marathon	Participating_in_sports&Exercise&Recreation	Sports, Exercise, and Recreation	Participating in Sports, Exercise, or Recreation	Running	362	1	True	True	True	True	0.3785670622601174
video_on	action	25	meg	2	SkBmnkBdeX8	Hand washing clothes	Housework	Household Activities	Housework	Laundry	232	6	True	False	False	True	1.1230821941862814
video_on	action	25	meg	2	-BJfsqzmeYg	Preparing salad	Food&Drink_prep.&Presentation&Clean-up	Eating and drinking Activities	Food & Drink Prep., Presentation, & Clean-up	Food and drink preparation	96	5	True	False	False	True	0.8515379425371066
video_on	action	25	meg	2	hj4w-J8ICXA	Longboarding	Participating_in_sports&Exercise&Recreation	Sports, Exercise, and Recreation	Participating in Sports, Exercise, or Recreation	Playing sports	331	1	True	True	True	True	0.4916661761235446
video_on	action	25	meg	2	XUSaJXCJKDo	Windsurfing	Participating_in_sports&Exercise&Recreation	Sports, Exercise, and Recreation	Participating in Sports, Exercise, or Recreation	Participating in water sports	237	1	True	True	True	True	0.0053494047897402
video_on	action	25	meg	2	8Mus-Mcq-so	Playing bagpipes	Arts&Entertainment	Socializing, Relaxing, and Leisure	Arts and Entertainment	Playing musical instruments	136	2	True	False	False	True	0.5559864219685551
video_on	action	25	meg	2	rYoZq7xEWms	Drum corps	Arts&Entertainment	Socializing, Relaxing, and Leisure	Arts and Entertainment	Playing musical instruments	307	2	True	False	False	True	0.8773700042802375
video_on	action	25	meg	2	1ZMLzufbQmY	Laying tile	Interior_maintenance&Repair&Decoration	Household Activities	Interior Maintenance, Repair, & Decoration	Interior arrangement, decoration, & repairs	330	7	True	False	False	True	0.3475163046678062
video_on	action	25	meg	2	I4UeMXxjhFI	Doing nails	Grooming	Personal Care	Grooming	Washing, dressing and grooming oneself	167	4	True	False	False	True	0.4844802057486959
video_on	action	25	meg	2	bKOha1r4Uzg	Pole vault	Participating_in_sports&Exercise&Recreation	Sports, Exercise, and Recreation	Participating in Sports, Exercise, or Recreation	Playing sports	106	1	True	True	True	True	0.5885797256196383
video_on	action	25	meg	2	L8L7jLPr2J4	Decorating the Christmas tree	Interior_maintenance&Repair&Decoration	Household Activities	Interior Maintenance, Repair, & Decoration	Interior arrangement, decoration, & repairs	302	7	True	False	False	True	0.7925785725237802
video_on	action	25	meg	2	L2otSq4m9Uw	Carving jack-o-lanterns	Interior_maintenance&Repair&Decoration	Household Activities	Interior Maintenance, Repair, & Decoration	Interior arrangement, decoration, & repairs	295	7	True	False	True	False	0.5583859715843573
video_on	action	25	meg	2	tmck69qmveQ	Beach soccer	Participating_in_sports&Exercise&Recreation	Sports, Exercise, and Recreation	Participating in Sports, Exercise, or Recreation	Playing soccer	278	1	True	True	True	True	0.4305212809704244
video_on	action	25	meg	2	rgY3yqCtbqw	Knitting	Housework	Household Activities	Housework	Sewing, repairing, & maintaining textiles	329	6	True	False	False	True	0.8372257716837339
video_on	action	25	meg	2	IX7NXCH7zJo	Rafting	Participating_in_sports&Exercise&Recreation	Sports, Exercise, and Recreation	Participating in Sports, Exercise, or Recreation	Boating	353	1	True	True	True	True	0.5873040309816133
video_on	action	25	meg	2	wGqGCtc6tA4	Camel ride	Participating_in_sports&Exercise&Recreation	Sports, Exercise, and Recreation	Participating in Sports, Exercise, or Recreation	Playing sports	291	1	True	True	False	False	0.6615174004400615
video_on	action	25	meg	2	Zeov6LMH6nI	Polishing forniture	Housework	Household Activities	Housework	Interior cleaning	156	6	True	False	False	True	0.7169606107345317
video_on	action	25	meg	2	TRyDgOTjDgU	Cricket	Participating_in_sports&Exercise&Recreation	Sports, Exercise, and Recreation	Participating in Sports, Exercise, or Recreation	Playing sports	82	1	True	True	True	True	0.6852502713154536
video_on	action	25	meg	2	4CzXhG6tkdY	Washing dishes	Food&Drink_prep.&Presentation&Clean-up	Eating and drinking Activities	Food & Drink Prep., Presentation, & Clean-up	Kitchen and food clean-up	213	5	False	False	False	True	0.0
video_on	action	25	meg	2	KePzBbaDo8k	Getting a tattoo	Grooming	Personal Care	Grooming	Washing, dressing and grooming	187	4	True	False	False	True	0.6933714290789794
video_on	action	25	meg	2	W9HUbnfcqI0	Zumba	Participating_in_sports&Exercise&Recreation	Sports, Exercise, and Recreation	Participating in Sports, Exercise, or Recreation	Doing aerobics	69	1	True	True	True	True	0.5643255285394844
video_on	action	25	meg	2	w_e_bhyoJio	Swimming	Participating_in_sports&Exercise&Recreation	Sports, Exercise, and Recreation	Participating in Sports, Exercise, or Recreation	Participating in water sports	377	1	True	True	True	True	0.9832004359050188
video_on	action	25	meg	2	5AHAzkXg-PA	Hopscotch	Relaxing&Leisure	Socializing, Relaxing, and Leisure	Relaxing and Leisure	Playing games	241	3	True	False	False	True	0.8466331895033363
video_on	action	25	meg	2	O68MuqZfJfI	Cleaning shoes	Housework	Household Activities	Housework	Sewing, repairing, & maintaining textiles	134	6	True	False	False	True	0.5748537826293614
video_on	action	25	meg	2	NjW6f7QmRqk	Fun sliding down	Arts&Entertainment	Socializing, Relaxing, and Leisure	Arts and Entertainment	Park activities	313	2	True	False	True	False	0.5364247646648437
video_on	action	25	meg	2	y6ry7xB44vQ	Belly dance	Arts&Entertainment	Socializing, Relaxing, and Leisure	Arts and Entertainment	Dancing	247	2	True	False	True	False	0.6063802843855228
video_on	action	25	meg	2	TPB_fe-Emd4	Playing blackjack	Arts&Entertainment	Socializing, Relaxing, and Leisure	Arts and Entertainment	Attending gambling establishments	343	2	True	False	False	True	0.472722442849772
video_on	action	25	meg	2	x-kT_5-u80o	Playing field hockey	Participating_in_sports&Exercise&Recreation	Sports, Exercise, and Recreation	Participating in Sports, Exercise, or Recreation	Playing hockey	94	1	True	True	True	True	0.4975752444006502
video_on	action	25	meg	2	ARjjvZyc0Cg	Hand car wash	Vehicles	Household Activities	Vehicles	Vehicle repair and maintenance (by self)	318	11	True	False	False	True	0.5436813721898943
video_on	action	25	meg	2	hXu7QWb9tMY	Ping-pong	Participating_in_sports&Exercise&Recreation	Sports, Exercise, and Recreation	Participating in Sports, Exercise, or Recreation	Playing racquet sports	119	1	True	True	True	True	0.4972640183696057
video_on	action	25	meg	2	7diYD0yw_94	Fixing bicycle	Vehicles	Household Activities	Vehicles	Vehicle repair and maintenance (by self)	171	11	True	False	False	True	0.886358127288986
video_on	action	25	meg	2	SH7HDCYN2RU	Playing pool	Relaxing&Leisure	Socializing, Relaxing, and Leisure	Relaxing and Leisure	Playing games	348	3	True	False	True	False	0.5212561939551961
video_on	action	25	meg	2	bPdniEIyFNw	Playing guitarra	Arts&Entertainment	Socializing, Relaxing, and Leisure	Arts and Entertainment	Playing musical instruments	251	2	True	False	False	True	0.5116447133186739
video_on	action	25	meg	2	VUMfXBw-WW0	Tai chi	Participating_in_sports&Exercise&Recreation	Sports, Exercise, and Recreation	Participating in Sports, Exercise, or Recreation	Participating in martial arts	263	1	True	True	True	True	0.6184839881607331
video_on	action	25	meg	2	FTo8W3or6gY	Elliptical trainer	Participating_in_sports&Exercise&Recreation	Sports, Exercise, and Recreation	Participating in Sports, Exercise, or Recreation	Using cardiovascular equipment	308	1	False	True	False	False	0.0
video_on	action	25	meg	2	yXyXYws30lo	Shot put	Participating_in_sports&Exercise&Recreation	Sports, Exercise, and Recreation	Participating in Sports, Exercise, or Recreation	Playing sports	169	1	True	True	True	True	0.0053481973300222
video_on	action	25	meg	2	jdF3wf_KQUc	Capoeira	Participating_in_sports&Exercise&Recreation	Sports, Exercise, and Recreation	Participating in Sports, Exercise, or Recreation	Participating in martial arts	294	1	True	True	True	True	0.5942385452217422
video_on	action	25	meg	2	lwhhmBEnBzE	Trimming branches or hedges	Lawn&Garden&Houseplants	Household Activities	Lawn, Garden, and Houseplants	Lawn, garden, and houseplant care	381	9	True	False	False	True	0.3922350466018542
video_on	action	25	meg	2	3MkXuk9VOK4	Baking cookies	Food&Drink_prep.&Presentation&Clean-up	Eating and drinking Activities	Food & Drink Prep., Presentation, & Clean-up	Food and drink preparation	276	5	True	False	False	True	0.530755983403651
video_on	action	25	meg	2	_d2XfJBOXH0	Wrapping presents	Household_management	Household Activities	Household Management	Household & personal organization and planning	179	13	True	False	False	True	0.4966563578636851
video_on	action	25	meg	2	gKN4JUIKcGU	Using parallel bars	Participating_in_sports&Exercise&Recreation	Sports, Exercise, and Recreation	Participating in Sports, Exercise, or Recreation	Doing gymnastics	88	1	True	True	True	True	0.5388321628270205
video_on	action	25	meg	2	utFrkr-kQtQ	Playing saxophone	Arts&Entertainment	Socializing, Relaxing, and Leisure	Arts and Entertainment	Playing musical instruments	109	2	True	False	False	True	0.7928499519184697
video_on	action	25	meg	2	3z7WW3aYfTk	Springboard diving	Participating_in_sports&Exercise&Recreation	Sports, Exercise, and Recreation	Participating in Sports, Exercise, or Recreation	Participating in water sports	193	1	True	True	True	True	0.59514897945337
video_on	action	25	meg	2	owQUqOAAgQo	Chopping wood	Interior_maintenance&Repair&Decoration	Household Activities	Interior Maintenance, Repair, & Decoration	Heating and cooling	110	7	True	False	False	True	0.8573078496265225
video_on	action	25	meg	2	oU8dro7b97Y	Making a sandwich	Food&Drink_prep.&Presentation&Clean-up	Eating and drinking Activities	Food & Drink Prep., Presentation, & Clean-up	Food and drink preparation	129	5	True	False	False	True	0.5055131682602223
video_on	action	25	meg	2	NmO2IVqmk_4	Rock-paper-scissors	Relaxing&Leisure	Socializing, Relaxing, and Leisure	Relaxing and Leisure	Playing games	358	3	True	False	False	True	0.6095716340641957
video_on	action	25	meg	2	g_x_nT6VSpc	Snowboarding	Participating_in_sports&Exercise&Recreation	Sports, Exercise, and Recreation	Participating in Sports, Exercise, or Recreation	Skiing, ice skating, snowboarding	373	1	True	True	True	True	0.6897161081142258
video_on	action	25	meg	2	eMqmGErr5m0	Washing hands	Grooming	Personal Care	Grooming	Washing, dressing and grooming oneself	173	4	True	False	False	True	0.913968494045548
video_on	action	25	meg	2	Vl7yVQWOGbY	Croquet	Participating_in_sports&Exercise&Recreation	Sports, Exercise, and Recreation	Participating in Sports, Exercise, or Recreation	Playing sports	299	1	True	True	False	False	0.6500762971700169
video_on	action	25	meg	2	vkLlIPydOK0	Playing kickball	Participating_in_sports&Exercise&Recreation	Sports, Exercise, and Recreation	Participating in Sports, Exercise, or Recreation	Playing sports	257	1	True	True	False	False	0.4262404892942868
video_on	action	25	meg	2	CN6PCG-dAtw	Table soccer	Relaxing&Leisure	Socializing, Relaxing, and Leisure	Relaxing and Leisure	Playing games	379	3	True	False	True	False	0.96239810064435
video_on	action	25	meg	2	fmyu3g4XYPg	Doing karate	Participating_in_sports&Exercise&Recreation	Sports, Exercise, and Recreation	Participating in Sports, Exercise, or Recreation	Participating in martial arts	99	1	True	True	False	False	2.290478023234755
video_on	action	25	meg	2	d39qj5zEAV0	Plastering	Interior_maintenance&Repair&Decoration	Household Activities	Interior Maintenance, Repair, & Decoration	Interior arrangement, decoration, & repairs	340	7	True	False	False	True	0.6414036263304297
video_on	action	25	meg	2	bQao2VWCoVw	Kayaking	Participating_in_sports&Exercise&Recreation	Sports, Exercise, and Recreation	Participating in Sports, Exercise, or Recreation	Participating in water sports	254	1	True	True	True	True	0.8530472831334919
video_on	action	25	meg	2	wosGTizJ1Z8	Getting a haircut	Grooming	Personal Care	Grooming	Washing, dressing and grooming	208	4	True	False	False	True	0.8268768272537272
video_on	action	25	meg	2	l5uaH-Qydxk	Using the monkey bar	Arts&Entertainment	Socializing, Relaxing, and Leisure	Arts and Entertainment	Park activities	383	2	True	False	True	False	0.613261367980158
video_on	action	25	meg	2	b9EhQpD-KOI	Sailing	Participating_in_sports&Exercise&Recreation	Sports, Exercise, and Recreation	Participating in Sports, Exercise, or Recreation	Participating in water sports	240	1	True	True	True	True	0.7872696180129424
video_on	action	25	meg	2	d3ylKgSevRU	Rollerblading	Participating_in_sports&Exercise&Recreation	Sports, Exercise, and Recreation	Participating in Sports, Exercise, or Recreation	Playing sports	359	1	True	True	True	True	0.4194164587534033
video_on	action	25	meg	2	2bjOPA2QwQo	Canoeing	Participating_in_sports&Exercise&Recreation	Sports, Exercise, and Recreation	Participating in Sports, Exercise, or Recreation	Boating	292	1	True	True	True	True	0.771720995369833
video_on	action	25	meg	2	3ixDQN-abkc	Assembling bicycle	Vehicles	Household Activities	Vehicles	Vehicle repair and maintenance (by self)	273	11	True	False	False	True	0.5398591181437951
video_on	action	25	meg	2	xUL_L9OSZKM	Beer pong	Relaxing&Leisure	Socializing, Relaxing, and Leisure	Relaxing and Leisure	Playing games	280	3	True	False	True	False	0.7306871574837714
video_on	action	25	meg	2	JrJOI1rq6UE	Grooming horse	Animals&Pets	Household Activities	Animals and Pets	Walking / exercising / playing with animals	95	8	True	False	False	True	0.9819980952015612
video_on	action	25	meg	2	whMEVCboXVM	Calf roping	Participating_in_sports&Exercise&Recreation	Sports, Exercise, and Recreation	Participating in Sports, Exercise, or Recreation	Participating in rodeo competitions	290	1	True	True	True	True	0.4683740327018313
video_on	action	25	meg	2	L_M2CQhKx8E	Painting	Interior_maintenance&Repair&Decoration	Household Activities	Interior Maintenance, Repair, & Decoration	Interior arrangement, decoration, & repairs	217	7	True	False	False	True	0.6044265939854085
video_on	action	25	meg	2	k97tzAf-SBk	Building sandcastles	Arts&Entertainment	Socializing, Relaxing, and Leisure	Arts and Entertainment	Beach activities	286	2	True	False	True	False	0.6925566870486364
video_on	action	25	meg	2	9WGt8G4AgJc	Horseback riding	Participating_in_sports&Exercise&Recreation	Sports, Exercise, and Recreation	Participating in Sports, Exercise, or Recreation	Participating in equestrian sports	175	1	False	True	False	False	0.0
video_on	action	25	meg	2	2omkVl_sqGY	Swinging at the playground	Arts&Entertainment	Socializing, Relaxing, and Leisure	Arts and Entertainment	Park activities	378	2	True	False	False	True	0.0053542346868198
video_on	action	25	meg	2	N93lpd2ES6U	Playing piano	Arts&Entertainment	Socializing, Relaxing, and Leisure	Arts and Entertainment	Playing musical instruments	197	2	True	False	False	True	0.3890799210930709
video_on	action	25	meg	2	ODA4VZPOpSo	Bungee jumping	Participating_in_sports&Exercise&Recreation	Sports, Exercise, and Recreation	Participating in Sports, Exercise, or Recreation	Playing sports	154	1	False	True	False	False	0.0
video_on	action	25	meg	2	WBpefcnmy4s	Getting a piercing	Grooming	Personal Care	Grooming	Washing, dressing and grooming	214	4	True	False	False	True	0.0050970430602319
video_on	action	25	meg	2	kIdyTwjBkpw	Discus throw	Participating_in_sports&Exercise&Recreation	Sports, Exercise, and Recreation	Participating in Sports, Exercise, or Recreation	Playing sports	92	1	True	True	False	False	0.0050982505199499
video_on	action	25	meg	2	1AT0Hjhb0ZE	Playing polo	Participating_in_sports&Exercise&Recreation	Sports, Exercise, and Recreation	Participating in Sports, Exercise, or Recreation	Participating in equestrian sports	75	1	True	True	True	True	0.5896199631388299
video_on	action	25	meg	2	NKhH3ZldAjY	Polishing shoes	Housework	Household Activities	Housework	Sewing, repairing, & maintaining textiles	227	6	False	False	False	True	0.0
video_on	action	25	meg	2	SLlCsBOTcE8	Hula hoop	Relaxing&Leisure	Socializing, Relaxing, and Leisure	Relaxing and Leisure	Playing games	322	3	True	False	False	True	0.0053602720436174
video_on	action	25	meg	2	MvUnJi0N1h4	Surfing	Participating_in_sports&Exercise&Recreation	Sports, Exercise, and Recreation	Participating in Sports, Exercise, or Recreation	Participating in water sports	376	1	True	True	False	False	0.0053491029248107
video_on	action	25	meg	2	195JWIR12lA	Slacklining	Relaxing&Leisure	Socializing, Relaxing, and Leisure	Relaxing and Leisure	Playing games	371	3	True	False	True	False	0.4623058799479622
video_on	action	25	meg	2	5anKa4gxA8E	Tango	Arts&Entertainment	Socializing, Relaxing, and Leisure	Arts and Entertainment	Dancing	73	2	True	False	False	True	0.6782303283689544
video_on	action	25	meg	2	n4w0nV9REqw	Sumo	Participating_in_sports&Exercise&Recreation	Sports, Exercise, and Recreation	Participating in Sports, Exercise, or Recreation	Wrestling	375	1	True	True	False	False	0.4614361978892702
video_on	action	25	meg	2	RQcS4UbcmkU	Making an omelette	Food&Drink_prep.&Presentation&Clean-up	Eating and drinking Activities	Food & Drink Prep., Presentation, & Clean-up	Food and drink preparation	334	5	True	False	False	True	0.846808876725845
video_on	action	25	meg	2	cGZenxDvAbw	Starting a campfire	Participating_in_sports&Exercise&Recreation	Sports, Exercise, and Recreation	Participating in Sports, Exercise, or Recreation	Playing sports	153	1	True	True	False	False	0.4849067454051692
video_on	action	25	meg	2	kQ_OMzNIxUQ	Rock climbing	Participating_in_sports&Exercise&Recreation	Sports, Exercise, and Recreation	Participating in Sports, Exercise, or Recreation	Climbing, spelunking, caving	188	1	True	True	True	True	0.4797882697021123
video_on	action	25	meg	2	7tl42Vdvauk	Brushing hair	Grooming	Personal Care	Grooming	Washing, dressing and grooming oneself	125	4	True	False	False	True	0.5343934941338375
video_on	action	25	meg	2	XFsHQuIneCc	Putting on shoes	Grooming	Personal Care	Grooming	Washing, dressing and grooming oneself	352	4	True	False	False	True	0.4699781598465051
video_on	action	25	meg	2	6y8VIwNczoo	Ironing clothes	Housework	Household Activities	Housework	Laundry	83	6	True	False	False	True	0.8556720263441093
video_on	action	25	meg	2	r_pUgFmEcFw	Hammer throw	Participating_in_sports&Exercise&Recreation	Sports, Exercise, and Recreation	Participating in Sports, Exercise, or Recreation	Playing sports	224	1	True	True	True	True	0.9854089029831812
video_on	action	25	meg	2	hPrhucj65ZA	Playing drums	Arts&Entertainment	Socializing, Relaxing, and Leisure	Arts and Entertainment	Playing musical instruments	346	2	True	False	False	True	0.534407078201184
video_on	action	25	meg	2	7RyjoBuDdcU	Mooping floor	Housework	Household Activities	Housework	Interior cleaning	335	6	False	False	False	True	0.0
video_on	action	25	eeg	2	FpwzXikDX7k	Raking leaves	Lawn&Garden&Houseplants	Household Activities	Lawn, Garden, and Houseplants	Lawn, garden, and houseplant care	354	9	True	False	False	True	0.880705300020054
video_on	action	25	eeg	2	1pWiYicuCww	Rock climbing	Participating_in_sports&Exercise&Recreation	Sports, Exercise, and Recreation	Participating in Sports, Exercise, or Recreation	Climbing, spelunking, caving	188	1	True	True	True	True	0.6600869999965653
video_on	action	25	eeg	2	_vlBqzl8Wh0	Tai chi	Participating_in_sports&Exercise&Recreation	Sports, Exercise, and Recreation	Participating in Sports, Exercise, or Recreation	Participating in martial arts	263	1	True	True	True	True	0.7297983999887947
video_on	action	25	eeg	2	ph_OdjFWnD4	Playing pool	Relaxing&Leisure	Socializing, Relaxing, and Leisure	Relaxing and Leisure	Playing games	348	3	True	False	True	False	0.8042798000096809
video_on	action	25	eeg	2	JmWEBi2pszQ	Decorating the Christmas tree	Interior_maintenance&Repair&Decoration	Household Activities	Interior Maintenance, Repair, & Decoration	Interior arrangement, decoration, & repairs	302	7	True	False	False	True	1.0632956000044942
video_on	action	25	eeg	2	rU3HZyzBfAU	Playing guitarra	Arts&Entertainment	Socializing, Relaxing, and Leisure	Arts and Entertainment	Playing musical instruments	251	2	True	False	False	True	0.9664157999795862
video_on	action	25	eeg	2	Lab1rthIid8	Welding	Appliances&Tools&Toys	Household Activities	Appliances, Tools, and Toys	Appliance, tool, and toy set-up, repair, & maintenance (by self)	388	10	True	False	False	True	0.9785306999983732
video_on	action	25	eeg	2	_Ekqof4Ujtw	Playing piano	Arts&Entertainment	Socializing, Relaxing, and Leisure	Arts and Entertainment	Playing musical instruments	197	2	False	False	False	True	0.0
video_on	action	25	eeg	2	GNMGuE0XGd4	Capoeira	Participating_in_sports&Exercise&Recreation	Sports, Exercise, and Recreation	Participating in Sports, Exercise, or Recreation	Participating in martial arts	294	1	True	True	False	False	0.0050817999872379
video_on	action	25	eeg	2	f_2OzaxO0Fo	Surfing	Participating_in_sports&Exercise&Recreation	Sports, Exercise, and Recreation	Participating in Sports, Exercise, or Recreation	Participating in water sports	376	1	True	True	True	True	0.7175404000154231
video_on	action	25	eeg	2	S5H8qHwJN_I	Cheerleading	Arts&Entertainment	Socializing, Relaxing, and Leisure	Arts and Entertainment	Dancing	140	2	True	False	True	False	0.865934000001289
video_on	action	25	eeg	2	3Sc19eW-uLY	Painting	Interior_maintenance&Repair&Decoration	Household Activities	Interior Maintenance, Repair, & Decoration	Interior arrangement, decoration, & repairs	217	7	True	False	False	True	0.8536706000159029
video_on	action	25	eeg	2	qHlBWJT62Mw	Making a cake	Food&Drink_prep.&Presentation&Clean-up	Eating and drinking Activities	Food & Drink Prep., Presentation, & Clean-up	Food and drink preparation	332	5	True	False	False	True	0.7243424000043888
video_on	action	25	eeg	2	1oTgaOQT5aM	Baking cookies	Food&Drink_prep.&Presentation&Clean-up	Eating and drinking Activities	Food & Drink Prep., Presentation, & Clean-up	Food and drink preparation	276	5	True	False	False	True	0.4895925000018906
video_on	action	25	eeg	2	CvEYA0woJeI	Playing blackjack	Arts&Entertainment	Socializing, Relaxing, and Leisure	Arts and Entertainment	Attending gambling establishments	343	2	True	False	False	True	0.8425122000044212
video_on	action	25	eeg	2	Lh3bqre89fw	Playing water polo	Participating_in_sports&Exercise&Recreation	Sports, Exercise, and Recreation	Participating in Sports, Exercise, or Recreation	Participating in water sports	130	1	True	True	True	True	0.5624226999934763
video_on	action	25	eeg	2	QvWy7FoeZMc	Playing ice hockey	Participating_in_sports&Exercise&Recreation	Sports, Exercise, and Recreation	Participating in Sports, Exercise, or Recreation	Playing hockey	347	1	True	True	True	True	0.7593343000044115
video_on	action	25	eeg	2	0k5spo188xA	High jump	Participating_in_sports&Exercise&Recreation	Sports, Exercise, and Recreation	Participating in Sports, Exercise, or Recreation	Playing sports	195	1	True	True	True	True	0.65315970001393
video_on	action	25	eeg	2	W4CGORYiU4Q	Using the rowing machine	Participating_in_sports&Exercise&Recreation	Sports, Exercise, and Recreation	Participating in Sports, Exercise, or Recreation	Using cardiovascular equipment	384	1	True	True	True	True	0.5730496999749448
video_on	action	25	eeg	2	FfjqGzoJW_Q	Horseback riding	Participating_in_sports&Exercise&Recreation	Sports, Exercise, and Recreation	Participating in Sports, Exercise, or Recreation	Participating in equestrian sports	175	1	True	True	True	True	0.7360639000253286
video_on	action	25	eeg	2	X9Ol8kKijDY	Smoking a cigarette	Relaxing&Leisure	Socializing, Relaxing, and Leisure	Relaxing and Leisure	Tobacco and drug use	201	3	True	False	False	True	0.5577476999897044
video_on	action	25	eeg	2	dtVdnqBUfEw	Discus throw	Participating_in_sports&Exercise&Recreation	Sports, Exercise, and Recreation	Participating in Sports, Exercise, or Recreation	Playing sports	92	1	True	True	True	True	0.6468641000101343
video_on	action	25	eeg	2	F4hcbk_Fiio	Camel ride	Participating_in_sports&Exercise&Recreation	Sports, Exercise, and Recreation	Participating in Sports, Exercise, or Recreation	Playing sports	291	1	True	True	True	True	0.9418073999986518
video_on	action	25	eeg	2	Qv4jBsuL_Hg	Hopscotch	Relaxing&Leisure	Socializing, Relaxing, and Leisure	Relaxing and Leisure	Playing games	241	3	True	False	True	False	0.9311097000027077
video_on	action	25	eeg	2	mIfU9UBA3Ko	Making a lemonade	Food&Drink_prep.&Presentation&Clean-up	Eating and drinking Activities	Food & Drink Prep., Presentation, & Clean-up	Food and drink preparation	333	5	True	False	False	True	0.7003375999920536
video_on	action	25	eeg	2	gS7aJlePEZY	Cleaning sink	Interior_maintenance&Repair&Decoration	Household Activities	Interior Maintenance, Repair, & Decoration	Interior arrangement, decoration, & repairs	297	7	True	False	False	True	0.8156705999863334
video_on	action	25	eeg	2	dfkp2RJh_j0	Braiding hair	Grooming	Personal Care	Grooming	Washing, dressing and grooming oneself	285	4	True	False	False	True	0.5868017000029795
video_on	action	25	eeg	2	NEthbdTgx-M	Snowboarding	Participating_in_sports&Exercise&Recreation	Sports, Exercise, and Recreation	Participating in Sports, Exercise, or Recreation	Skiing, ice skating, snowboarding	373	1	True	True	True	True	0.8438651000033133
video_on	action	25	eeg	2	6zfHzPcJ8Dc	Getting a tattoo	Grooming	Personal Care	Grooming	Washing, dressing and grooming	187	4	True	False	False	True	0.7696719000232406
video_on	action	25	eeg	2	TGcY1DV7aBc	Springboard diving	Participating_in_sports&Exercise&Recreation	Sports, Exercise, and Recreation	Participating in Sports, Exercise, or Recreation	Participating in water sports	193	1	True	True	True	True	0.73974050002289
video_on	action	25	eeg	2	W76ASjFDtSI	Bathing dog	Animals&Pets	Household Activities	Animals and Pets	Care for animals and pets (not veterinary care)	90	8	True	False	False	True	0.80241480001132
video_on	action	25	eeg	2	fjZQc1ae3qc	Mixing drinks	Food&Drink_prep.&Presentation&Clean-up	Eating and drinking Activities	Food & Drink Prep., Presentation, & Clean-up	Food and drink preparation	244	5	True	False	False	True	0.8302059000125155
video_on	action	25	eeg	2	8rrKOSCNzzU	Grooming horse	Animals&Pets	Household Activities	Animals and Pets	Walking / exercising / playing with animals	95	8	True	False	False	True	0.7342815999872983
video_on	action	25	eeg	2	95ApZJqSe4s	Slacklining	Relaxing&Leisure	Socializing, Relaxing, and Leisure	Relaxing and Leisure	Playing games	371	3	True	False	True	False	0.6043468999851029
video_on	action	25	eeg	2	q0CkXkEQPXA	Doing fencing	Participating_in_sports&Exercise&Recreation	Sports, Exercise, and Recreation	Participating in Sports, Exercise, or Recreation	Fencing	309	1	True	True	True	True	0.877252900012536
video_on	action	25	eeg	2	zyy0xXNmNBU	Preparing salad	Food&Drink_prep.&Presentation&Clean-up	Eating and drinking Activities	Food & Drink Prep., Presentation, & Clean-up	Food and drink preparation	96	5	True	False	False	True	0.7680444999714382
video_on	action	25	eeg	2	fVVpJzgTpd8	Beach soccer	Participating_in_sports&Exercise&Recreation	Sports, Exercise, and Recreation	Participating in Sports, Exercise, or Recreation	Playing soccer	278	1	True	True	True	True	0.7492975000059232
video_on	action	25	eeg	2	aastWRo3dSE	Wrapping presents	Household_management	Household Activities	Household Management	Household & personal organization and planning	179	13	True	False	False	True	0.8144133000168949
video_on	action	25	eeg	2	lx4EOlwIVt8	Calf roping	Participating_in_sports&Exercise&Recreation	Sports, Exercise, and Recreation	Participating in Sports, Exercise, or Recreation	Participating in rodeo competitions	290	1	True	True	True	True	0.7313483999751043
video_on	action	25	eeg	2	tbgWUOsBFg8	Kneeling	Participating_in_sports&Exercise&Recreation	Sports, Exercise, and Recreation	Participating in Sports, Exercise, or Recreation	Working out	328	1	True	True	True	True	0.8228088999749161
video_on	action	25	eeg	2	3cRy5603RJw	Tug of war	Relaxing&Leisure	Socializing, Relaxing, and Leisure	Relaxing and Leisure	Playing games	382	3	True	False	True	False	0.7253245000028983
video_on	action	25	eeg	2	YHOIeGmMP3s	Drum corps	Arts&Entertainment	Socializing, Relaxing, and Leisure	Arts and Entertainment	Playing musical instruments	307	2	True	False	False	True	0.7038380999874789
video_on	action	25	eeg	2	I1RC0lwxk1A	Shoveling snow	Exterior_maintenance&Repair&Decoration	Household Activities	Exterior Maintenance, Repair, & Decoration	Exterior cleaning	183	12	True	False	False	True	0.7398151000088546
video_on	action	25	eeg	2	1PNZQas60ZI	Grooming dog	Animals&Pets	Household Activities	Animals and Pets	Care for animals and pets (not veterinary care)	317	8	True	False	False	True	0.6752316000056453
video_on	action	25	eeg	2	SS9ZUpHW6pQ	Wakeboarding	Participating_in_sports&Exercise&Recreation	Sports, Exercise, and Recreation	Participating in Sports, Exercise, or Recreation	Participating in water sports	385	1	True	True	True	True	0.8781878000008874
video_on	action	25	eeg	2	1JsKyOZdMDg	Ironing clothes	Housework	Household Activities	Housework	Laundry	83	6	True	False	False	True	0.6618772000074387
video_on	action	25	eeg	2	-ygQkwyI8KQ	Tumbling	Participating_in_sports&Exercise&Recreation	Sports, Exercise, and Recreation	Participating in Sports, Exercise, or Recreation	Doing gymnastics	258	1	True	True	True	True	0.7718071999843232
video_on	action	25	eeg	2	83J71AE_qSM	Archery	Participating_in_sports&Exercise&Recreation	Sports, Exercise, and Recreation	Participating in Sports, Exercise, or Recreation	Playing sports	250	1	True	True	True	True	0.8422669999999925
video_on	action	25	eeg	2	vN5hn2YET3k	Polishing forniture	Housework	Household Activities	Housework	Interior cleaning	156	6	True	False	False	True	0.767826099996455
video_on	action	25	eeg	2	GVDukvCoxh8	Longboarding	Participating_in_sports&Exercise&Recreation	Sports, Exercise, and Recreation	Participating in Sports, Exercise, or Recreation	Playing sports	331	1	True	True	True	True	1.1405752999999097
video_on	action	25	eeg	2	fWI_Nfl9PxA	Playing beach volleyball	Participating_in_sports&Exercise&Recreation	Sports, Exercise, and Recreation	Participating in Sports, Exercise, or Recreation	Playing volleyball	341	1	True	True	True	True	0.6577551999944262
video_on	action	25	eeg	2	0qleAV1mnT8	Using uneven bars	Participating_in_sports&Exercise&Recreation	Sports, Exercise, and Recreation	Participating in Sports, Exercise, or Recreation	Doing gymnastics	192	1	True	True	True	True	0.6897459000174422
video_on	action	25	eeg	2	pib22rSsKyA	Playing bagpipes	Arts&Entertainment	Socializing, Relaxing, and Leisure	Arts and Entertainment	Playing musical instruments	136	2	True	False	False	True	0.8624162999913096
video_on	action	25	eeg	2	O4JSYTnb7dQ	Shaving	Grooming	Personal Care	Grooming	Washing, dressing and grooming oneself	190	4	True	False	False	True	0.7314992000174243
video_on	action	25	eeg	2	MpWRmtpLM6Q	Getting a haircut	Grooming	Personal Care	Grooming	Washing, dressing and grooming	208	4	True	False	False	True	0.5604651000176091
video_on	action	25	eeg	2	RGhQFdeUjxo	Playing kickball	Participating_in_sports&Exercise&Recreation	Sports, Exercise, and Recreation	Participating in Sports, Exercise, or Recreation	Playing sports	257	1	True	True	True	True	0.8122749000031035
video_on	action	25	eeg	2	ru1JRPiRSJk	Using parallel bars	Participating_in_sports&Exercise&Recreation	Sports, Exercise, and Recreation	Participating in Sports, Exercise, or Recreation	Doing gymnastics	88	1	True	True	True	True	0.7395407999865711
video_on	action	25	eeg	2	lrKkgpzy_X8	Clean and jerk	Participating_in_sports&Exercise&Recreation	Sports, Exercise, and Recreation	Participating in Sports, Exercise, or Recreation	Weightlifting	84	1	True	True	True	True	0.7771716999995988
video_on	action	25	eeg	2	AQvEJmNnOrg	Triple jump	Participating_in_sports&Exercise&Recreation	Sports, Exercise, and Recreation	Participating in Sports, Exercise, or Recreation	Playing sports	155	1	True	True	True	True	0.8163748000224587
video_on	action	25	eeg	2	e_sIFA5-BOU	Carving jack-o-lanterns	Interior_maintenance&Repair&Decoration	Household Activities	Interior Maintenance, Repair, & Decoration	Interior arrangement, decoration, & repairs	295	7	True	False	False	True	0.968739400006598
video_on	action	25	eeg	2	Lr4Y3g-pzBY	Ballet	Arts&Entertainment	Socializing, Relaxing, and Leisure	Arts and Entertainment	Attending arts and entertainment	229	2	True	False	False	True	0.7862290999910329
video_on	action	25	eeg	2	4Wsp0DoyLlY	Playing squash	Participating_in_sports&Exercise&Recreation	Sports, Exercise, and Recreation	Participating in Sports, Exercise, or Recreation	Playing racquet sports	194	1	True	True	True	True	0.7797434999956749
video_on	action	25	eeg	2	YOME2D3MvhU	Cleaning windows	Housework	Household Activities	Housework	Interior cleaning	143	6	True	False	False	True	0.731041200022446
video_on	action	25	eeg	2	7kfnv1emoC4	Rock-paper-scissors	Relaxing&Leisure	Socializing, Relaxing, and Leisure	Relaxing and Leisure	Playing games	358	3	True	False	False	True	0.6867196999955922
video_on	action	25	eeg	2	FMFpyQklMfI	Knitting	Housework	Household Activities	Housework	Sewing, repairing, & maintaining textiles	329	6	True	False	False	True	0.8619560000079218
video_on	action	25	eeg	2	72U7xKrNGCY	Arm wrestling	Participating_in_sports&Exercise&Recreation	Sports, Exercise, and Recreation	Participating in Sports, Exercise, or Recreation	Wrestling	271	1	True	True	True	True	0.7553716999827884
video_on	action	25	eeg	2	01RE_GpbPLI	Playing saxophone	Arts&Entertainment	Socializing, Relaxing, and Leisure	Arts and Entertainment	Playing musical instruments	109	2	True	False	False	True	0.7923790999921039
video_on	action	25	eeg	2	x9PSkCCgC6Y	Mooping floor	Housework	Household Activities	Housework	Interior cleaning	335	6	True	False	False	True	0.7869596999953501
video_on	action	25	eeg	2	bWhzJ-fNk3A	Waxing skis	Appliances&Tools&Toys	Household Activities	Appliances, Tools, and Toys	Appliance, tool, and toy set-up, repair, & maintenance (by self)	387	10	True	False	False	True	0.9779809000028764
video_on	action	25	eeg	2	P3EUEuoyacE	Disc dog	Animals&Pets	Household Activities	Animals and Pets	Walking / exercising / playing with animals	303	8	True	False	True	False	0.5648134000075515
video_on	action	25	eeg	2	XTLqttlu03g	Brushing hair	Grooming	Personal Care	Grooming	Washing, dressing and grooming oneself	125	4	True	False	False	True	0.9361336999863852
video_on	action	25	eeg	2	O_IrzZbXiCc	Playing field hockey	Participating_in_sports&Exercise&Recreation	Sports, Exercise, and Recreation	Participating in Sports, Exercise, or Recreation	Playing hockey	94	1	True	True	True	True	0.6622634000086691
video_on	action	25	eeg	2	iy5vgz_hAJ4	Swinging at the playground	Arts&Entertainment	Socializing, Relaxing, and Leisure	Arts and Entertainment	Park activities	378	2	True	False	False	True	0.6885785999766085
video_on	action	25	eeg	2	e02KXb3u1n8	Doing karate	Participating_in_sports&Exercise&Recreation	Sports, Exercise, and Recreation	Participating in Sports, Exercise, or Recreation	Participating in martial arts	99	1	True	True	True	True	0.6136196999868844
video_on	action	25	eeg	2	_C5l75kyCG4	Rafting	Participating_in_sports&Exercise&Recreation	Sports, Exercise, and Recreation	Participating in Sports, Exercise, or Recreation	Boating	353	1	True	True	True	True	0.6948054999811575
video_on	action	25	eeg	2	qn4rpIdkMSM	Playing violin	Arts&Entertainment	Socializing, Relaxing, and Leisure	Arts and Entertainment	Playing musical instruments	234	2	True	False	False	True	0.5748076000018045
video_on	action	25	eeg	2	A-7HxHJo3jg	Getting a piercing	Grooming	Personal Care	Grooming	Washing, dressing and grooming	214	4	True	False	False	True	0.7280336999974679
video_on	action	25	eeg	2	g0jUeBOW7so	Cutting the grass	Lawn&Garden&Houseplants	Household Activities	Lawn, Garden, and Houseplants	Lawn, garden, and houseplant care	301	9	False	False	False	True	0.0
video_on	action	25	eeg	2	ngmMV1Xw6IA	Using the balance beam	Participating_in_sports&Exercise&Recreation	Sports, Exercise, and Recreation	Participating in Sports, Exercise, or Recreation	Doing gymnastics	180	1	True	True	False	False	0.0051909999747294
video_on	action	25	eeg	2	G6s0q1PF2Iw	Ping-pong	Participating_in_sports&Exercise&Recreation	Sports, Exercise, and Recreation	Participating in Sports, Exercise, or Recreation	Playing racquet sports	119	1	True	True	True	True	0.0050708999915514
video_on	action	25	eeg	2	G_YKNQiQ1dY	Putting on makeup	Grooming	Personal Care	Grooming	Washing, dressing and grooming oneself	76	4	True	False	False	True	0.7120411000214517
video_on	action	25	eeg	2	ziFipSa1wUA	Long jump	Participating_in_sports&Exercise&Recreation	Sports, Exercise, and Recreation	Participating in Sports, Exercise, or Recreation	Playing sports	80	1	True	True	True	True	0.7639415000157896
video_on	action	25	eeg	2	panVpr1Dz68	Doing crunches	Participating_in_sports&Exercise&Recreation	Sports, Exercise, and Recreation	Participating in Sports, Exercise, or Recreation	Working out	305	1	True	True	True	True	0.9514969000010752
video_on	action	25	eeg	2	ltsoupYS81A	Snatch	Participating_in_sports&Exercise&Recreation	Sports, Exercise, and Recreation	Participating in Sports, Exercise, or Recreation	Weightlifting	79	1	True	True	True	True	0.6706115999841131
video_on	action	25	eeg	2	ycGz6z10OSc	Windsurfing	Participating_in_sports&Exercise&Recreation	Sports, Exercise, and Recreation	Participating in Sports, Exercise, or Recreation	Participating in water sports	237	1	True	True	True	True	0.6396595000114758
video_on	action	25	eeg	2	M-lYJeUTuXM	Trimming branches or hedges	Lawn&Garden&Houseplants	Household Activities	Lawn, Garden, and Houseplants	Lawn, garden, and houseplant care	381	9	True	False	False	True	0.5955843000265304
video_on	action	25	eeg	2	bx3HaC9PgR0	Brushing teeth	Grooming	Personal Care	Grooming	Washing, dressing and grooming oneself	148	4	True	False	False	True	0.7302842999924906
video_on	action	25	eeg	2	MlanecB6-s0	Hand washing clothes	Housework	Household Activities	Housework	Laundry	232	6	True	False	False	True	0.7447125000180677
video_on	action	25	eeg	2	73YxOzfG8r4	Assembling bicycle	Vehicles	Household Activities	Vehicles	Vehicle repair and maintenance (by self)	273	11	True	False	False	True	0.7188728000037372
video_on	action	25	eeg	2	D4k--3Vgzrc	Skiing	Participating_in_sports&Exercise&Recreation	Sports, Exercise, and Recreation	Participating in Sports, Exercise, or Recreation	Skiing, ice skating, snowboarding	369	1	False	True	False	False	0.0
video_on	action	25	meg	3	cIqhU0CL3zY	Brushing hair	Grooming	Personal Care	Grooming	Washing, dressing and grooming oneself	125	4	True	False	False	True	0.8451329049712513
video_on	action	25	meg	3	6eHWZVkxP8U	Using the balance beam	Participating_in_sports&Exercise&Recreation	Sports, Exercise, and Recreation	Participating in Sports, Exercise, or Recreation	Doing gymnastics	180	1	True	True	True	True	0.4081193465681281
video_on	action	25	meg	3	9SHUK2Xo86s	Playing congas	Arts&Entertainment	Socializing, Relaxing, and Leisure	Arts and Entertainment	Playing musical instruments	345	2	True	False	False	True	0.8141072024300229
video_on	action	25	meg	3	2eep4G5Tgho	Cutting the grass	Lawn&Garden&Houseplants	Household Activities	Lawn, Garden, and Houseplants	Lawn, garden, and houseplant care	301	9	True	False	False	True	0.8624676812323742
video_on	action	25	meg	3	U7_wH1_gxoE	Playing violin	Arts&Entertainment	Socializing, Relaxing, and Leisure	Arts and Entertainment	Playing musical instruments	234	2	True	False	False	True	0.7905648103333078
video_on	action	25	meg	3	LoU-OfVQYEw	Hitting a pinata	Relaxing&Leisure	Socializing, Relaxing, and Leisure	Relaxing and Leisure	Playing games	321	3	True	False	False	True	0.8868263247131836
video_on	action	25	meg	3	mdU2K93bCrU	Playing ice hockey	Participating_in_sports&Exercise&Recreation	Sports, Exercise, and Recreation	Participating in Sports, Exercise, or Recreation	Playing hockey	347	1	True	True	True	True	0.4861256888252683
video_on	action	25	meg	3	ceqwhqRAvZs	Kneeling	Participating_in_sports&Exercise&Recreation	Sports, Exercise, and Recreation	Participating in Sports, Exercise, or Recreation	Working out	328	1	True	True	True	True	0.4483722516743
video_on	action	25	meg	3	5jVGqRTfmVE	Starting a campfire	Participating_in_sports&Exercise&Recreation	Sports, Exercise, and Recreation	Participating in Sports, Exercise, or Recreation	Playing sports	153	1	True	True	False	False	0.894382385420613
video_on	action	25	meg	3	Jl7V1LWZo3A	Cleaning shoes	Housework	Household Activities	Housework	Sewing, repairing, & maintaining textiles	134	6	True	False	False	True	0.6095369192189537
video_on	action	25	meg	3	_4lNYxD7BsU	Swinging at the playground	Arts&Entertainment	Socializing, Relaxing, and Leisure	Arts and Entertainment	Park activities	378	2	True	False	False	True	0.9843493459338788
video_on	action	25	meg	3	WWnKUMU7owY	Baking cookies	Food&Drink_prep.&Presentation&Clean-up	Eating and drinking Activities	Food & Drink Prep., Presentation, & Clean-up	Food and drink preparation	276	5	False	False	False	True	0.0
video_on	action	25	meg	3	aICdYE_PzXI	Rollerblading	Participating_in_sports&Exercise&Recreation	Sports, Exercise, and Recreation	Participating in Sports, Exercise, or Recreation	Playing sports	359	1	True	True	False	False	0.0050997598445974
video_on	action	25	meg	3	IgOJWCkxAls	Surfing	Participating_in_sports&Exercise&Recreation	Sports, Exercise, and Recreation	Participating in Sports, Exercise, or Recreation	Participating in water sports	376	1	True	True	True	True	0.3833136364410165
video_on	action	25	meg	3	pwwCeoXZvN0	Calf roping	Participating_in_sports&Exercise&Recreation	Sports, Exercise, and Recreation	Participating in Sports, Exercise, or Recreation	Participating in rodeo competitions	290	1	True	True	True	True	0.439368733408628
video_on	action	25	meg	3	NVtk1WMz_D8	Playing badminton	Participating_in_sports&Exercise&Recreation	Sports, Exercise, and Recreation	Participating in Sports, Exercise, or Recreation	Playing racquet sports	268	1	False	True	False	False	0.0
video_on	action	25	meg	3	uyvqO0G95gQ	Plastering	Interior_maintenance&Repair&Decoration	Household Activities	Interior Maintenance, Repair, & Decoration	Interior arrangement, decoration, & repairs	340	7	True	False	True	False	0.0053641963168047
video_on	action	25	meg	3	AyYmgI7nOBk	Preparing pasta	Food&Drink_prep.&Presentation&Clean-up	Eating and drinking Activities	Food & Drink Prep., Presentation, & Clean-up	Food and drink preparation	186	5	True	False	False	True	0.8798854712513275
video_on	action	25	meg	3	NQ3HaaeVYEA	Playing polo	Participating_in_sports&Exercise&Recreation	Sports, Exercise, and Recreation	Participating in Sports, Exercise, or Recreation	Participating in equestrian sports	75	1	True	True	True	True	0.4395474393386394
video_on	action	25	meg	3	_hbO_r8-mzc	Hurling	Participating_in_sports&Exercise&Recreation	Sports, Exercise, and Recreation	Participating in Sports, Exercise, or Recreation	Playing sports	323	1	True	True	True	True	0.4509870332549326
video_on	action	25	meg	3	lsylWg7iwR4	Laying tile	Interior_maintenance&Repair&Decoration	Household Activities	Interior Maintenance, Repair, & Decoration	Interior arrangement, decoration, & repairs	330	7	True	False	False	True	0.6404717594850808
video_on	action	25	meg	3	eoazk_FREos	Playing bagpipes	Arts&Entertainment	Socializing, Relaxing, and Leisure	Arts and Entertainment	Playing musical instruments	136	2	True	False	False	True	0.0050985523848794
video_on	action	25	meg	3	_l1zyCJZweo	Playing water polo	Participating_in_sports&Exercise&Recreation	Sports, Exercise, and Recreation	Participating in Sports, Exercise, or Recreation	Participating in water sports	130	1	True	True	True	True	0.394286844151793
video_on	action	25	meg	3	ob9zI9HxC-8	Bullfighting	Participating_in_sports&Exercise&Recreation	Sports, Exercise, and Recreation	Participating in Sports, Exercise, or Recreation	Participating in rodeo competitions	288	1	False	True	False	False	0.0
video_on	action	25	meg	3	OBlpIMOeb1o	Getting a piercing	Grooming	Personal Care	Grooming	Washing, dressing and grooming	214	4	True	False	False	True	0.6255775869067293
video_on	action	25	meg	3	vpqM5yuVcGc	Shoveling snow	Exterior_maintenance&Repair&Decoration	Household Activities	Exterior Maintenance, Repair, & Decoration	Exterior cleaning	183	12	True	False	False	True	0.7378462615888566
video_on	action	25	meg	3	BHo3MKclOZg	Discus throw	Participating_in_sports&Exercise&Recreation	Sports, Exercise, and Recreation	Participating in Sports, Exercise, or Recreation	Playing sports	92	1	False	True	False	False	0.0
video_on	action	25	meg	3	qZooFJS_xXI	Doing crunches	Participating_in_sports&Exercise&Recreation	Sports, Exercise, and Recreation	Participating in Sports, Exercise, or Recreation	Working out	305	1	True	True	True	True	0.0052932573307771
video_on	action	25	meg	3	Uqg_JFLxAss	Snow tubing	Participating_in_sports&Exercise&Recreation	Sports, Exercise, and Recreation	Participating in Sports, Exercise, or Recreation	Skiing, ice skating, snowboarding	372	1	False	True	False	False	0.0
video_on	action	25	meg	3	2GxYolgJOrw	Playing racquetball	Participating_in_sports&Exercise&Recreation	Sports, Exercise, and Recreation	Participating in Sports, Exercise, or Recreation	Playing racquet sports	253	1	True	True	False	False	0.0052968797390349
video_on	action	25	meg	3	3jIIifi8kc8	Raking leaves	Lawn&Garden&Houseplants	Household Activities	Lawn, Garden, and Houseplants	Lawn, garden, and houseplant care	354	9	False	False	False	True	0.0
video_on	action	25	meg	3	pgtXA6LNQ0s	Disc dog	Animals&Pets	Household Activities	Animals and Pets	Walking / exercising / playing with animals	303	8	True	False	False	True	0.00516768018133
video_on	action	25	meg	3	T_GISgYGIOg	Ironing clothes	Housework	Household Activities	Housework	Laundry	83	6	True	False	False	True	0.7943973278743215
video_on	action	25	meg	3	3axfp9dht5k	Using the monkey bar	Arts&Entertainment	Socializing, Relaxing, and Leisure	Arts and Entertainment	Park activities	383	2	False	False	False	True	0.0
video_on	action	25	meg	3	RujnIfgWdiw	Pole vault	Participating_in_sports&Exercise&Recreation	Sports, Exercise, and Recreation	Participating in Sports, Exercise, or Recreation	Playing sports	106	1	True	True	False	False	0.0050991561147384
video_on	action	25	meg	3	ha_whLVbEME	Rock-paper-scissors	Relaxing&Leisure	Socializing, Relaxing, and Leisure	Relaxing and Leisure	Playing games	358	3	True	False	False	True	0.9737066838133616
video_on	action	25	meg	3	rdM3cOOPovI	Carving jack-o-lanterns	Interior_maintenance&Repair&Decoration	Household Activities	Interior Maintenance, Repair, & Decoration	Interior arrangement, decoration, & repairs	295	7	True	False	False	True	0.8268701861379668
video_on	action	25	meg	3	6-MJHzPgLgU	Tug of war	Relaxing&Leisure	Socializing, Relaxing, and Leisure	Relaxing and Leisure	Playing games	382	3	True	False	False	True	0.0051000617386307
video_on	action	25	meg	3	i2RxJCEU1MY	Running a marathon	Participating_in_sports&Exercise&Recreation	Sports, Exercise, and Recreation	Participating in Sports, Exercise, or Recreation	Running	362	1	True	True	False	False	0.5490165891533252
video_on	action	25	meg	3	oLtBZN1_EF0	Ping-pong	Participating_in_sports&Exercise&Recreation	Sports, Exercise, and Recreation	Participating in Sports, Exercise, or Recreation	Playing racquet sports	119	1	True	True	False	False	0.9874920948350336
video_on	action	25	meg	3	GTBEUC_eDtI	Having an ice cream	Food&Drink_prep.&Presentation&Clean-up	Eating and drinking Activities	Food & Drink Prep., Presentation, & Clean-up	Eating and Drinking	320	5	True	False	False	True	0.8196763671876397
video_on	action	25	meg	3	Q0JO4MXyRUw	Ice fishing	Participating_in_sports&Exercise&Recreation	Sports, Exercise, and Recreation	Participating in Sports, Exercise, or Recreation	Fishing	324	1	True	True	False	False	0.8843217249959707
video_on	action	25	meg	3	fntQH9q1xyo	Swimming	Participating_in_sports&Exercise&Recreation	Sports, Exercise, and Recreation	Participating in Sports, Exercise, or Recreation	Participating in water sports	377	1	True	True	True	True	0.4367464051174465
video_on	action	25	meg	3	p3KilmV4hXU	Tai chi	Participating_in_sports&Exercise&Recreation	Sports, Exercise, and Recreation	Participating in Sports, Exercise, or Recreation	Participating in martial arts	263	1	True	True	True	True	0.6361743650631979
video_on	action	25	meg	3	whLqU6A4rtY	Playing harmonica	Arts&Entertainment	Socializing, Relaxing, and Leisure	Arts and Entertainment	Playing musical instruments	100	2	True	False	False	True	0.3640879583253991
video_on	action	25	meg	3	G_27YM55wgA	Tumbling	Participating_in_sports&Exercise&Recreation	Sports, Exercise, and Recreation	Participating in Sports, Exercise, or Recreation	Doing gymnastics	258	1	True	True	True	True	0.6922527058632113
video_on	action	25	meg	3	3Enudt7uBNw	Kite flying	Relaxing&Leisure	Socializing, Relaxing, and Leisure	Relaxing and Leisure	Playing games	327	3	True	False	False	True	0.9431340852752328
video_on	action	25	meg	3	qK9FAgcV0Y0	Dodgeball	Participating_in_sports&Exercise&Recreation	Sports, Exercise, and Recreation	Participating in Sports, Exercise, or Recreation	Playing sports	161	1	True	True	True	True	0.9400945752859116
video_on	action	25	meg	3	hsu_tCylRR0	Drinking coffee	Food&Drink_prep.&Presentation&Clean-up	Eating and drinking Activities	Food & Drink Prep., Presentation, & Clean-up	Eating and Drinking	68	5	True	False	False	True	0.8688811711326707
video_on	action	25	meg	3	dFnGAA8R87Y	BMX	Participating_in_sports&Exercise&Recreation	Sports, Exercise, and Recreation	Participating in Sports, Exercise, or Recreation	Biking	274	1	True	True	True	True	0.5571667262993287
video_on	action	25	meg	3	s5p3HAz4BFU	Belly dance	Arts&Entertainment	Socializing, Relaxing, and Leisure	Arts and Entertainment	Dancing	247	2	False	False	False	True	0.0
video_on	action	25	meg	3	zNNnuh1oZZs	Wrapping presents	Household_management	Household Activities	Household Management	Household & personal organization and planning	179	13	True	False	False	True	0.0050997598445974
video_on	action	25	meg	3	n9azSmryFPY	Assembling bicycle	Vehicles	Household Activities	Vehicles	Vehicle repair and maintenance (by self)	273	11	True	False	False	True	0.0053584608249366
video_on	action	25	meg	3	Wry04vW0oDA	Tango	Arts&Entertainment	Socializing, Relaxing, and Leisure	Arts and Entertainment	Dancing	73	2	True	False	False	True	0.0051133439410477
video_on	action	25	meg	3	oOGABT1JqbQ	Futsal	Participating_in_sports&Exercise&Recreation	Sports, Exercise, and Recreation	Participating in Sports, Exercise, or Recreation	Playing soccer	315	1	True	True	True	True	0.4864722334314137
video_on	action	25	meg	3	el_iPORz134	Hula hoop	Relaxing&Leisure	Socializing, Relaxing, and Leisure	Relaxing and Leisure	Playing games	322	3	True	False	True	False	0.7020640232076403
video_on	action	25	meg	3	OqmZWnmdj0k	Playing flauta	Arts&Entertainment	Socializing, Relaxing, and Leisure	Arts and Entertainment	Playing musical instruments	149	2	True	False	False	True	0.9954028505599126
video_on	action	25	meg	3	KxqK7cljN4Q	Hammer throw	Participating_in_sports&Exercise&Recreation	Sports, Exercise, and Recreation	Participating in Sports, Exercise, or Recreation	Playing sports	224	1	True	True	True	True	0.7250570153410081
video_on	action	25	meg	3	UWI7liW2s8Q	Blow-drying hair	Grooming	Personal Care	Grooming	Washing, dressing and grooming oneself	281	4	False	False	False	True	0.0
video_on	action	25	meg	3	AwBR8xu5yXk	Putting on shoes	Grooming	Personal Care	Grooming	Washing, dressing and grooming oneself	352	4	True	False	False	True	0.0051030803879257
video_on	action	25	meg	3	u_LZZ3LjBCw	Playing pool	Relaxing&Leisure	Socializing, Relaxing, and Leisure	Relaxing and Leisure	Playing games	348	3	True	False	True	False	0.5595116377808154
video_on	action	25	meg	3	VN0NyPGAuPY	Cleaning windows	Housework	Household Activities	Housework	Interior cleaning	143	6	False	False	False	True	0.0
video_on	action	25	meg	3	phmFXgboWD4	Washing hands	Grooming	Personal Care	Grooming	Washing, dressing and grooming oneself	173	4	True	False	False	True	0.0050731954688671
video_on	action	25	meg	3	FAMDLQzQ0AU	Hanging wallpaper	Interior_maintenance&Repair&Decoration	Household Activities	Interior Maintenance, Repair, & Decoration	Interior arrangement, decoration, & repairs	319	7	True	False	False	True	0.0051006654684897
video_on	action	25	meg	3	pFJuyhuqDZ8	Breakdancing	Arts&Entertainment	Socializing, Relaxing, and Leisure	Arts and Entertainment	Dancing	236	2	True	False	False	True	0.0053349151276052
video_on	action	25	meg	3	qHKoLuFG9Ls	Riding bumper cars	Relaxing&Leisure	Socializing, Relaxing, and Leisure	Relaxing and Leisure	Playing games	356	3	True	False	False	True	0.7836097690742463
video_on	action	25	meg	3	ZD5068Es5OI	Cricket	Participating_in_sports&Exercise&Recreation	Sports, Exercise, and Recreation	Participating in Sports, Exercise, or Recreation	Playing sports	82	1	True	True	True	True	0.3516989891941193
video_on	action	25	meg	3	AvjvDUaXWJg	High jump	Participating_in_sports&Exercise&Recreation	Sports, Exercise, and Recreation	Participating in Sports, Exercise, or Recreation	Playing sports	195	1	False	True	False	False	0.0
video_on	action	25	meg	3	vRYvMnDoDBs	Scuba diving	Participating_in_sports&Exercise&Recreation	Sports, Exercise, and Recreation	Participating in Sports, Exercise, or Recreation	Participating in water sports	364	1	True	True	False	False	0.3447119499032851
video_on	action	25	meg	3	YaTsxhiKw4Y	Polishing shoes	Housework	Household Activities	Housework	Sewing, repairing, & maintaining textiles	227	6	True	False	False	True	1.264122220367426
video_on	action	25	meg	3	zooi7qmrClE	Making an omelette	Food&Drink_prep.&Presentation&Clean-up	Eating and drinking Activities	Food & Drink Prep., Presentation, & Clean-up	Food and drink preparation	334	5	False	False	False	True	0.0
video_on	action	25	meg	3	grb5wL3EF8M	Cleaning sink	Interior_maintenance&Repair&Decoration	Household Activities	Interior Maintenance, Repair, & Decoration	Interior arrangement, decoration, & repairs	297	7	True	False	False	True	0.0051051935006398
video_on	action	25	meg	3	5G4ATmrpcXA	Spread mulch	Lawn&Garden&Houseplants	Household Activities	Lawn, Garden, and Houseplants	Lawn, garden, and houseplant care	374	9	True	False	False	True	0.0051444363198243
video_on	action	25	meg	3	UvB8hm69Xe0	Doing kickboxing	Participating_in_sports&Exercise&Recreation	Sports, Exercise, and Recreation	Participating in Sports, Exercise, or Recreation	Participating in martial arts	70	1	True	True	True	True	0.5435222876840271
video_on	action	25	meg	3	d2Xv02C_Fkw	Canoeing	Participating_in_sports&Exercise&Recreation	Sports, Exercise, and Recreation	Participating in Sports, Exercise, or Recreation	Boating	292	1	True	True	True	True	0.4832069260592107
video_on	action	25	meg	3	-Tkdx5wiKsU	Smoking a cigarette	Relaxing&Leisure	Socializing, Relaxing, and Leisure	Relaxing and Leisure	Tobacco and drug use	201	3	True	False	False	True	0.7370285008510109
video_on	action	25	meg	3	KWU9ZaWbeuQ	Mixing drinks	Food&Drink_prep.&Presentation&Clean-up	Eating and drinking Activities	Food & Drink Prep., Presentation, & Clean-up	Food and drink preparation	244	5	False	False	False	True	0.0
video_on	action	25	meg	3	7_WV-UjoMwo	Wakeboarding	Participating_in_sports&Exercise&Recreation	Sports, Exercise, and Recreation	Participating in Sports, Exercise, or Recreation	Participating in water sports	385	1	True	True	False	False	0.0051012691983487
video_on	action	25	meg	3	IoEZHNCosLg	Playing field hockey	Participating_in_sports&Exercise&Recreation	Sports, Exercise, and Recreation	Participating in Sports, Exercise, or Recreation	Playing hockey	94	1	True	True	True	True	0.005102174822241
video_on	action	25	meg	3	AvYHFzMNQQc	Snatch	Participating_in_sports&Exercise&Recreation	Sports, Exercise, and Recreation	Participating in Sports, Exercise, or Recreation	Weightlifting	79	1	True	True	False	False	1.3776608541957105
video_on	action	25	meg	3	RTORhBvCa9w	Playing kickball	Participating_in_sports&Exercise&Recreation	Sports, Exercise, and Recreation	Participating in Sports, Exercise, or Recreation	Playing sports	257	1	True	True	False	False	0.6741240164556075
video_on	action	25	meg	3	Zz4xaBoQvNc	Shuffleboard	Relaxing&Leisure	Socializing, Relaxing, and Leisure	Relaxing and Leisure	Playing games	368	3	False	False	False	True	0.0
video_on	action	25	meg	3	t7jVXNvA6k0	Knitting	Housework	Household Activities	Housework	Sewing, repairing, & maintaining textiles	329	6	True	False	False	True	0.0051009673334192
video_on	action	25	meg	3	OkbL0eRmJqE	Windsurfing	Participating_in_sports&Exercise&Recreation	Sports, Exercise, and Recreation	Participating in Sports, Exercise, or Recreation	Participating in water sports	237	1	True	True	True	True	0.6982426747854333
video_on	action	25	meg	3	HzKOlVZqD6U	Brushing teeth	Grooming	Personal Care	Grooming	Washing, dressing and grooming oneself	148	4	True	False	False	True	1.001814227347495
video_on	action	25	meg	3	1H9Gm3L2HCI	Welding	Appliances&Tools&Toys	Household Activities	Appliances, Tools, and Toys	Appliance, tool, and toy set-up, repair, & maintenance (by self)	388	10	True	False	False	True	0.5787484850152396
video_on	action	25	meg	3	jDZWr8amtAM	Making a sandwich	Food&Drink_prep.&Presentation&Clean-up	Eating and drinking Activities	Food & Drink Prep., Presentation, & Clean-up	Food and drink preparation	129	5	True	False	False	True	0.8423173811170273
video_on	action	25	meg	3	WCHWK5KYGOY	Using the rowing machine	Participating_in_sports&Exercise&Recreation	Sports, Exercise, and Recreation	Participating in Sports, Exercise, or Recreation	Using cardiovascular equipment	384	1	True	True	False	False	0.5622912393300794
video_on	action	25	meg	3	MvvCDBfnpZI	Slacklining	Relaxing&Leisure	Socializing, Relaxing, and Leisure	Relaxing and Leisure	Playing games	371	3	True	False	True	False	0.4830291257530916
video_on	action	25	meg	3	AtcJp4jcroY	Mowing the lawn	Lawn&Garden&Houseplants	Household Activities	Lawn, Garden, and Houseplants	Lawn, garden, and houseplant care	218	9	False	False	False	True	0.0
video_on	action	25	eeg	3	Wr_Eu2M7U9E	Hanging wallpaper	Interior_maintenance&Repair&Decoration	Household Activities	Interior Maintenance, Repair, & Decoration	Interior arrangement, decoration, & repairs	319	7	True	False	False	True	0.7366800000017975
video_on	action	25	eeg	3	qaTd2hgS0Bg	Grooming horse	Animals&Pets	Household Activities	Animals and Pets	Walking / exercising / playing with animals	95	8	True	False	False	True	0.7585335000185296
video_on	action	25	eeg	3	hUx4YKN99sU	Surfing	Participating_in_sports&Exercise&Recreation	Sports, Exercise, and Recreation	Participating in Sports, Exercise, or Recreation	Participating in water sports	376	1	True	True	True	True	0.672172499995213
video_on	action	25	eeg	3	Wl-sU5xopXI	Using the monkey bar	Arts&Entertainment	Socializing, Relaxing, and Leisure	Arts and Entertainment	Park activities	383	2	True	False	True	False	0.6754611000069417
video_on	action	25	eeg	3	dbNiWmAjFfc	Kayaking	Participating_in_sports&Exercise&Recreation	Sports, Exercise, and Recreation	Participating in Sports, Exercise, or Recreation	Participating in water sports	254	1	True	True	True	True	0.6500684999919031
video_on	action	25	eeg	3	UbplSUPPPPM	Putting in contact lenses	Grooming	Personal Care	Grooming	Washing, dressing and grooming oneself	351	4	True	False	False	True	0.6262657000042964
video_on	action	25	eeg	3	g4WqMPN6_Ak	Playing flauta	Arts&Entertainment	Socializing, Relaxing, and Leisure	Arts and Entertainment	Playing musical instruments	149	2	True	False	False	True	0.7331319999939296
video_on	action	25	eeg	3	tcZjLM97UtQ	Vacuuming floor	Housework	Household Activities	Housework	Interior cleaning	160	6	True	False	False	True	0.534760999988066
