event_name	task	subject	session	run	video_id	class_name	raw_superclass_name	superclass_level0	superclass_level1	superclass_level2	class_id	superclass_id	is_resp	stim_is_sports	resp_is_sports	resp_is_right	resp_time
video_on	action	26	meg	1	MEs87o5g1S4	Smoking a cigarette	Relaxing&Leisure	Socializing, Relaxing, and Leisure	Relaxing and Leisure	Tobacco and drug use	201	3	True	False	False	True	0.5400121652637608
video_on	action	26	meg	1	rrEQtZgblyk	Bullfighting	Participating_in_sports&Exercise&Recreation	Sports, Exercise, and Recreation	Participating in Sports, Exercise, or Recreation	Participating in rodeo competitions	288	1	True	True	True	True	0.5095162412617356
video_on	action	26	meg	1	Aaj09sDE8FU	Windsurfing	Participating_in_sports&Exercise&Recreation	Sports, Exercise, and Recreation	Participating in Sports, Exercise, or Recreation	Participating in water sports	237	1	True	True	True	True	0.3409887086600065
video_on	action	26	meg	1	sFul5GPxi98	Beach soccer	Participating_in_sports&Exercise&Recreation	Sports, Exercise, and Recreation	Participating in Sports, Exercise, or Recreation	Playing soccer	278	1	True	True	True	True	0.3750352053320966
video_on	action	26	meg	1	KCC_qybXAZY	Canoeing	Participating_in_sports&Exercise&Recreation	Sports, Exercise, and Recreation	Participating in Sports, Exercise, or Recreation	Boating	292	1	True	True	False	False	0.8232770499889739
video_on	action	26	meg	1	DlFBY8VvQxw	Mowing the lawn	Lawn&Garden&Houseplants	Household Activities	Lawn, Garden, and Houseplants	Lawn, garden, and houseplant care	218	9	True	False	False	True	0.7655031160102226
video_on	action	26	meg	1	OX1ITjMDY_s	Pole vault	Participating_in_sports&Exercise&Recreation	Sports, Exercise, and Recreation	Participating in Sports, Exercise, or Recreation	Playing sports	106	1	True	True	True	True	0.3816636253613978
video_on	action	26	meg	1	c_1LN_bQuws	Calf roping	Participating_in_sports&Exercise&Recreation	Sports, Exercise, and Recreation	Participating in Sports, Exercise, or Recreation	Participating in rodeo competitions	290	1	True	True	False	False	0.8523152529378422
video_on	action	26	meg	1	LW6IzkdEwSE	Mooping floor	Housework	Household Activities	Housework	Interior cleaning	335	6	True	False	False	True	0.0050949299475178
video_on	action	26	meg	1	dCQk8eCv7PE	Volleyball	Participating_in_sports&Exercise&Recreation	Sports, Exercise, and Recreation	Participating in Sports, Exercise, or Recreation	Playing volleyball	123	1	True	True	True	True	0.4618720954749733
video_on	action	26	meg	1	4RuufZtuamo	Doing karate	Participating_in_sports&Exercise&Recreation	Sports, Exercise, and Recreation	Participating in Sports, Exercise, or Recreation	Participating in martial arts	99	1	True	True	False	False	0.3809053326258436
video_on	action	26	meg	1	dFbEgX_XuEw	Snowboarding	Participating_in_sports&Exercise&Recreation	Sports, Exercise, and Recreation	Participating in Sports, Exercise, or Recreation	Skiing, ice skating, snowboarding	373	1	True	True	False	False	0.4542441901867278
video_on	action	26	meg	1	Qgt9FVHsB1E	Assembling bicycle	Vehicles	Household Activities	Vehicles	Vehicle repair and maintenance (by self)	273	11	True	False	False	True	0.7186299414024688
video_on	action	26	meg	1	Co-XVipcYTs	Cricket	Participating_in_sports&Exercise&Recreation	Sports, Exercise, and Recreation	Participating in Sports, Exercise, or Recreation	Playing sports	82	1	True	True	False	False	0.5332445841049775
video_on	action	26	meg	1	GuLHBDoa284	Shaving	Grooming	Personal Care	Grooming	Washing, dressing and grooming oneself	190	4	True	False	False	True	0.6790900487685576
video_on	action	26	meg	1	1vp0Qk960JI	Raking leaves	Lawn&Garden&Houseplants	Household Activities	Lawn, Garden, and Houseplants	Lawn, garden, and houseplant care	354	9	True	False	False	True	0.5832994485972449
video_on	action	26	meg	1	eX5VR4ZFqpg	Riding bumper cars	Relaxing&Leisure	Socializing, Relaxing, and Leisure	Relaxing and Leisure	Playing games	356	3	True	False	False	True	0.9829359994037076
video_on	action	26	meg	1	naRMreAmsYY	Playing bagpipes	Arts&Entertainment	Socializing, Relaxing, and Leisure	Arts and Entertainment	Playing musical instruments	136	2	True	False	False	True	0.655508111929521
video_on	action	26	meg	1	ZSFobPeX7Lc	Having an ice cream	Food&Drink_prep.&Presentation&Clean-up	Eating and drinking Activities	Food & Drink Prep., Presentation, & Clean-up	Eating and Drinking	320	5	True	False	False	True	0.3832876757951453
video_on	action	26	meg	1	cLSMQMD6skg	Zumba	Participating_in_sports&Exercise&Recreation	Sports, Exercise, and Recreation	Participating in Sports, Exercise, or Recreation	Doing aerobics	69	1	True	True	False	False	0.3996398713788949
video_on	action	26	meg	1	5d3fR1NsfcA	Waterskiing	Participating_in_sports&Exercise&Recreation	Sports, Exercise, and Recreation	Participating in Sports, Exercise, or Recreation	Participating in water sports	386	1	True	True	True	True	0.4479475232656114
video_on	action	26	meg	1	oFE3h5-Q2sg	Starting a campfire	Participating_in_sports&Exercise&Recreation	Sports, Exercise, and Recreation	Participating in Sports, Exercise, or Recreation	Playing sports	153	1	True	True	False	False	0.7278191085206345
video_on	action	26	meg	1	yhR-iyhw10U	Fixing bicycle	Vehicles	Household Activities	Vehicles	Vehicle repair and maintenance (by self)	171	11	True	False	False	True	0.7040406556334347
video_on	action	26	meg	1	zo8SmHu1XVk	BMX	Participating_in_sports&Exercise&Recreation	Sports, Exercise, and Recreation	Participating in Sports, Exercise, or Recreation	Biking	274	1	True	True	True	True	0.5441797564271837
video_on	action	26	meg	1	ak2r3ImIrbY	Doing nails	Grooming	Personal Care	Grooming	Washing, dressing and grooming oneself	167	4	True	False	False	True	0.4005315897520631
video_on	action	26	meg	1	h-D3GrZBi-c	Playing violin	Arts&Entertainment	Socializing, Relaxing, and Leisure	Arts and Entertainment	Playing musical instruments	234	2	True	False	False	True	0.6965908525162376
video_on	action	26	meg	1	hg_xNcLZcWI	Cheerleading	Arts&Entertainment	Socializing, Relaxing, and Leisure	Arts and Entertainment	Dancing	140	2	True	False	False	True	0.6408086442970671
video_on	action	26	meg	1	gnSmI4RFgJs	Chopping wood	Interior_maintenance&Repair&Decoration	Household Activities	Interior Maintenance, Repair, & Decoration	Heating and cooling	110	7	True	False	False	True	0.7369608824374154
video_on	action	26	meg	1	Hwog0-rspjo	Paintball	Participating_in_sports&Exercise&Recreation	Sports, Exercise, and Recreation	Participating in Sports, Exercise, or Recreation	Playing sports	141	1	True	True	False	False	0.312443456321489
video_on	action	26	meg	1	wmZr5am879U	Trimming branches or hedges	Lawn&Garden&Houseplants	Household Activities	Lawn, Garden, and Houseplants	Lawn, garden, and houseplant care	381	9	True	False	False	True	0.4091127945575863
video_on	action	26	meg	1	Ek3EC9lA6X0	Putting in contact lenses	Grooming	Personal Care	Grooming	Washing, dressing and grooming oneself	351	4	True	False	False	True	0.3681827992550097
video_on	action	26	meg	1	VE_Am9eJkL8	Using the rowing machine	Participating_in_sports&Exercise&Recreation	Sports, Exercise, and Recreation	Participating in Sports, Exercise, or Recreation	Using cardiovascular equipment	384	1	True	True	True	True	0.4429283621720969
video_on	action	26	meg	1	wZLAPUQBudg	Playing racquetball	Participating_in_sports&Exercise&Recreation	Sports, Exercise, and Recreation	Participating in Sports, Exercise, or Recreation	Playing racquet sports	253	1	True	True	True	True	0.3930117532145232
video_on	action	26	meg	1	Q_71gUXe2wI	Drum corps	Arts&Entertainment	Socializing, Relaxing, and Leisure	Arts and Entertainment	Playing musical instruments	307	2	True	False	False	True	0.913266952498816
video_on	action	26	meg	1	4IWqAYvPGIs	Getting a tattoo	Grooming	Personal Care	Grooming	Washing, dressing and grooming	187	4	True	False	False	True	0.3859703776543028
video_on	action	26	meg	1	PI_qcEdmomU	Playing harmonica	Arts&Entertainment	Socializing, Relaxing, and Leisure	Arts and Entertainment	Playing musical instruments	100	2	True	False	False	True	0.3382975544664077
video_on	action	26	meg	1	R9Cib8uePHM	Wrapping presents	Household_management	Household Activities	Household Management	Household & personal organization and planning	179	13	True	False	False	True	0.4823891653795726
video_on	action	26	meg	1	mmB2q-70Pgg	Running a marathon	Participating_in_sports&Exercise&Recreation	Sports, Exercise, and Recreation	Participating in Sports, Exercise, or Recreation	Running	362	1	True	True	True	True	0.3480134814162738
video_on	action	26	meg	1	oJd6JWaEOY0	Swimming	Participating_in_sports&Exercise&Recreation	Sports, Exercise, and Recreation	Participating in Sports, Exercise, or Recreation	Participating in water sports	377	1	True	True	True	True	0.8666361779905856
video_on	action	26	meg	1	FAezMLOJ8NU	Skateboarding	Participating_in_sports&Exercise&Recreation	Sports, Exercise, and Recreation	Participating in Sports, Exercise, or Recreation	Playing sports	176	1	True	True	False	False	0.6907814007136039
video_on	action	26	meg	1	jHbV7sKF6uA	Hand car wash	Vehicles	Household Activities	Vehicles	Vehicle repair and maintenance (by self)	318	11	True	False	False	True	0.3701938446029089
video_on	action	26	meg	1	j6Cpf_xpF-M	Croquet	Participating_in_sports&Exercise&Recreation	Sports, Exercise, and Recreation	Participating in Sports, Exercise, or Recreation	Playing sports	299	1	True	True	False	False	0.4504804985481314
video_on	action	26	meg	1	948flZLMym0	Making a sandwich	Food&Drink_prep.&Presentation&Clean-up	Eating and drinking Activities	Food & Drink Prep., Presentation, & Clean-up	Food and drink preparation	129	5	True	False	False	True	0.4426008352893404
video_on	action	26	meg	1	vEEMAI75gfs	Cutting the grass	Lawn&Garden&Houseplants	Household Activities	Lawn, Garden, and Houseplants	Lawn, garden, and houseplant care	301	9	True	False	False	True	0.4035852875676937
video_on	action	26	meg	1	vXepokUD5_U	Swinging at the playground	Arts&Entertainment	Socializing, Relaxing, and Leisure	Arts and Entertainment	Park activities	378	2	True	False	False	True	0.370954854064621
video_on	action	26	meg	1	DDCtYRY3LQY	Tango	Arts&Entertainment	Socializing, Relaxing, and Leisure	Arts and Entertainment	Dancing	73	2	True	False	False	True	0.4191834165831096
video_on	action	26	meg	1	dStDuaQPy-s	Knitting	Housework	Household Activities	Housework	Sewing, repairing, & maintaining textiles	329	6	True	False	False	True	0.4980241222656332
video_on	action	26	meg	1	hpyhNaisgI0	Walking the dog	Animals&Pets	Household Activities	Animals and Pets	Walking / exercising / playing with animals	221	8	True	False	False	True	0.4033413780853152
video_on	action	26	meg	1	PLmr35BTEf0	Playing rubik cube	Relaxing&Leisure	Socializing, Relaxing, and Leisure	Relaxing and Leisure	Playing games	349	3	True	False	False	True	0.4261019317782484
video_on	action	26	meg	1	ZUjgg8DfRcE	Doing step aerobics	Participating_in_sports&Exercise&Recreation	Sports, Exercise, and Recreation	Participating in Sports, Exercise, or Recreation	Doing aerobics	230	1	True	True	False	False	0.4436682409141212
video_on	action	26	meg	1	YK_wVglpeAE	Fun sliding down	Arts&Entertainment	Socializing, Relaxing, and Leisure	Arts and Entertainment	Park activities	313	2	True	False	False	True	0.3399641682626679
video_on	action	26	meg	1	evdVFg8IktQ	Playing kickball	Participating_in_sports&Exercise&Recreation	Sports, Exercise, and Recreation	Participating in Sports, Exercise, or Recreation	Playing sports	257	1	True	True	False	False	0.6280815828940831
video_on	action	26	meg	1	mx80tIYxw34	Using parallel bars	Participating_in_sports&Exercise&Recreation	Sports, Exercise, and Recreation	Participating in Sports, Exercise, or Recreation	Doing gymnastics	88	1	True	True	True	True	0.4681204634835012
video_on	action	26	meg	1	bbwuLNp6cz8	Dodgeball	Participating_in_sports&Exercise&Recreation	Sports, Exercise, and Recreation	Participating in Sports, Exercise, or Recreation	Playing sports	161	1	True	True	True	True	0.0051752268918789
video_on	action	26	meg	1	rhRyV8zX-0w	Brushing teeth	Grooming	Personal Care	Grooming	Washing, dressing and grooming oneself	148	4	True	False	False	True	0.748338291537948
video_on	action	26	meg	1	7wm9aB7m0bo	Cleaning windows	Housework	Household Activities	Housework	Interior cleaning	143	6	True	False	False	True	0.0051290410337969
video_on	action	26	meg	1	nKsz-XRfmcs	Doing fencing	Participating_in_sports&Exercise&Recreation	Sports, Exercise, and Recreation	Participating in Sports, Exercise, or Recreation	Fencing	309	1	True	True	True	True	0.4128982206457294
video_on	action	26	meg	1	8Z-XaVqU3CI	Hula hoop	Relaxing&Leisure	Socializing, Relaxing, and Leisure	Relaxing and Leisure	Playing games	322	3	True	False	True	False	0.3808992953272536
video_on	action	26	meg	1	kDZnUjXMr4A	Putting on shoes	Grooming	Personal Care	Grooming	Washing, dressing and grooming oneself	352	4	True	False	False	True	0.4471524026594125
video_on	action	26	meg	1	liBTJfie3Rk	Sailing	Participating_in_sports&Exercise&Recreation	Sports, Exercise, and Recreation	Participating in Sports, Exercise, or Recreation	Participating in water sports	240	1	True	True	False	False	0.8613305441103876
video_on	action	26	meg	1	Em_YDd32SaE	Laying tile	Interior_maintenance&Repair&Decoration	Household Activities	Interior Maintenance, Repair, & Decoration	Interior arrangement, decoration, & repairs	330	7	True	False	False	True	0.3813979813712649
video_on	action	26	meg	1	mf7MJCeXQlc	Rock-paper-scissors	Relaxing&Leisure	Socializing, Relaxing, and Leisure	Relaxing and Leisure	Playing games	358	3	True	False	False	True	0.4297273678239435
video_on	action	26	meg	1	Kmw6O7KoX3M	Fixing the roof	Exterior_maintenance&Repair&Decoration	Household Activities	Exterior Maintenance, Repair, & Decoration	Exterior repair, improvements, & decoration	311	12	True	False	False	True	0.3657953243819065
video_on	action	26	meg	1	EXJlj-Fo7-M	Waxing skis	Appliances&Tools&Toys	Household Activities	Appliances, Tools, and Toys	Appliance, tool, and toy set-up, repair, & maintenance (by self)	387	10	True	False	False	True	0.3740236453595571
video_on	action	26	meg	1	DI4EaIb8a1U	Painting furniture	Interior_maintenance&Repair&Decoration	Household Activities	Interior Maintenance, Repair, & Decoration	Building and repairing furniture	337	7	True	False	False	True	0.4378853534581139
video_on	action	26	meg	1	-nM24d0xciA	Playing ice hockey	Participating_in_sports&Exercise&Recreation	Sports, Exercise, and Recreation	Participating in Sports, Exercise, or Recreation	Playing hockey	347	1	True	True	True	True	0.5422142932075076
video_on	action	26	meg	1	X6ZHZqc_ScE	Playing accordion	Arts&Entertainment	Socializing, Relaxing, and Leisure	Arts and Entertainment	Playing musical instruments	267	2	True	False	False	True	0.43825453822501
video_on	action	26	meg	1	HKGvCTEErpg	Playing drums	Arts&Entertainment	Socializing, Relaxing, and Leisure	Arts and Entertainment	Playing musical instruments	346	2	True	False	False	True	0.7746059489436448
video_on	action	26	meg	1	VPLGi7VMMUs	Plastering	Interior_maintenance&Repair&Decoration	Household Activities	Interior Maintenance, Repair, & Decoration	Interior arrangement, decoration, & repairs	340	7	True	False	False	True	0.3527307743788697
video_on	action	26	meg	1	QxRArdbXYRg	Drinking coffee	Food&Drink_prep.&Presentation&Clean-up	Eating and drinking Activities	Food & Drink Prep., Presentation, & Clean-up	Eating and Drinking	68	5	True	False	False	True	0.3347155874362215
video_on	action	26	meg	1	q51jeoOKE5Q	Getting a piercing	Grooming	Personal Care	Grooming	Washing, dressing and grooming	214	4	True	False	False	True	0.358919070684351
video_on	action	26	meg	1	nQk2yvCLH9o	Building sandcastles	Arts&Entertainment	Socializing, Relaxing, and Leisure	Arts and Entertainment	Beach activities	286	2	True	False	False	True	0.4472459817770868
video_on	action	26	meg	1	GGuXWqAfv58	Using uneven bars	Participating_in_sports&Exercise&Recreation	Sports, Exercise, and Recreation	Participating in Sports, Exercise, or Recreation	Doing gymnastics	192	1	True	True	True	True	0.4781065624556504
video_on	action	26	meg	1	WMEIexXRSQY	Table soccer	Relaxing&Leisure	Socializing, Relaxing, and Leisure	Relaxing and Leisure	Playing games	379	3	True	False	False	True	0.4233498002286069
video_on	action	26	meg	1	qJ9Dyp9NbX4	Bungee jumping	Participating_in_sports&Exercise&Recreation	Sports, Exercise, and Recreation	Participating in Sports, Exercise, or Recreation	Playing sports	154	1	True	True	True	True	0.3263610855792649
video_on	action	26	meg	1	JMZ8T6VUMYE	Hammer throw	Participating_in_sports&Exercise&Recreation	Sports, Exercise, and Recreation	Participating in Sports, Exercise, or Recreation	Playing sports	224	1	True	True	True	True	0.3700818515499122
video_on	action	26	meg	1	wMfwO6Xubmc	Doing kickboxing	Participating_in_sports&Exercise&Recreation	Sports, Exercise, and Recreation	Participating in Sports, Exercise, or Recreation	Participating in martial arts	70	1	True	True	True	True	0.3998698948416859
video_on	action	26	meg	1	k2rSGKPXpaw	Sharpening knives	Appliances&Tools&Toys	Household Activities	Appliances, Tools, and Toys	Appliance, tool, and toy set-up, repair, & maintenance (by self)	365	10	True	False	False	True	0.6713619232177734
video_on	action	26	meg	1	N-lLveZa6SM	Playing piano	Arts&Entertainment	Socializing, Relaxing, and Leisure	Arts and Entertainment	Playing musical instruments	197	2	True	False	False	True	0.4663198202033527
video_on	action	26	meg	1	E4H0vLAMVS8	Javelin throw	Participating_in_sports&Exercise&Recreation	Sports, Exercise, and Recreation	Participating in Sports, Exercise, or Recreation	Playing sports	116	1	True	True	True	True	0.3602922687423415
video_on	action	26	meg	1	NsiCMyAb_Us	Spread mulch	Lawn&Garden&Houseplants	Household Activities	Lawn, Garden, and Houseplants	Lawn, garden, and houseplant care	374	9	True	False	False	True	0.3678945152205415
video_on	action	26	meg	1	810vhWk91Sk	Breakdancing	Arts&Entertainment	Socializing, Relaxing, and Leisure	Arts and Entertainment	Dancing	236	2	True	False	False	True	0.5925486875348724
video_on	action	26	meg	1	QPGmIUp7asQ	Using the monkey bar	Arts&Entertainment	Socializing, Relaxing, and Leisure	Arts and Entertainment	Park activities	383	2	True	False	False	True	0.6560892080888152
video_on	action	26	meg	1	SPGdq1JleMc	Disc dog	Animals&Pets	Household Activities	Animals and Pets	Walking / exercising / playing with animals	303	8	True	False	False	True	0.6089878211496398
video_on	action	26	meg	1	L7oCkpKPIZ0	Hand washing clothes	Housework	Household Activities	Housework	Laundry	232	6	True	False	False	True	0.5364326132694259
video_on	action	26	meg	1	FxgH8QhJ_Go	Capoeira	Participating_in_sports&Exercise&Recreation	Sports, Exercise, and Recreation	Participating in Sports, Exercise, or Recreation	Participating in martial arts	294	1	True	True	False	False	0.3369829187868163
video_on	action	26	meg	1	VALIb-Xbe9c	Grooming dog	Animals&Pets	Household Activities	Animals and Pets	Care for animals and pets (not veterinary care)	317	8	True	False	False	True	0.7054503796971403
video_on	action	26	meg	1	UrXeS6us5vc	Brushing hair	Grooming	Personal Care	Grooming	Washing, dressing and grooming oneself	125	4	True	False	False	True	0.4170229465235024
video_on	action	26	meg	1	XywRyrL_QVQ	Hopscotch	Relaxing&Leisure	Socializing, Relaxing, and Leisure	Relaxing and Leisure	Playing games	241	3	True	False	False	True	0.5139008755795658
video_on	action	26	meg	1	TE_gdaPi10U	Playing pool	Relaxing&Leisure	Socializing, Relaxing, and Leisure	Relaxing and Leisure	Playing games	348	3	False	False	False	True	0.0
video_on	action	26	eeg	1	31WZM2GySRQ	Putting in contact lenses	Grooming	Personal Care	Grooming	Washing, dressing and grooming oneself	351	4	True	False	False	True	0.5023787999998603
video_on	action	26	eeg	1	wZ-teiWX4mg	Playing ice hockey	Participating_in_sports&Exercise&Recreation	Sports, Exercise, and Recreation	Participating in Sports, Exercise, or Recreation	Playing hockey	347	1	True	True	True	True	0.5804493999999067
video_on	action	26	eeg	1	S1Wr2e8JJZQ	Sumo	Participating_in_sports&Exercise&Recreation	Sports, Exercise, and Recreation	Participating in Sports, Exercise, or Recreation	Wrestling	375	1	True	True	True	True	0.7781003000000055
video_on	action	26	eeg	1	8P0fWWdDAco	Blow-drying hair	Grooming	Personal Care	Grooming	Washing, dressing and grooming oneself	281	4	True	False	False	True	0.4715906999999788
video_on	action	26	eeg	1	n_wIeRUonkY	Disc dog	Animals&Pets	Household Activities	Animals and Pets	Walking / exercising / playing with animals	303	8	True	False	False	True	0.4753762999998798
video_on	action	26	eeg	1	Wn7703Nm7Yc	Tango	Arts&Entertainment	Socializing, Relaxing, and Leisure	Arts and Entertainment	Dancing	73	2	True	False	False	True	0.4897637000003669
video_on	action	26	eeg	1	foMdRvncUIc	Having an ice cream	Food&Drink_prep.&Presentation&Clean-up	Eating and drinking Activities	Food & Drink Prep., Presentation, & Clean-up	Eating and Drinking	320	5	True	False	False	True	0.9762645000000704
video_on	action	26	eeg	1	O1Ydp0QZv4E	Making a lemonade	Food&Drink_prep.&Presentation&Clean-up	Eating and drinking Activities	Food & Drink Prep., Presentation, & Clean-up	Food and drink preparation	333	5	True	False	False	True	0.5399398000004112
video_on	action	26	eeg	1	XTaeoiGdmZo	Elliptical trainer	Participating_in_sports&Exercise&Recreation	Sports, Exercise, and Recreation	Participating in Sports, Exercise, or Recreation	Using cardiovascular equipment	308	1	True	True	True	True	0.4771669000001566
video_on	action	26	eeg	1	OslLWNVKpCU	Preparing pasta	Food&Drink_prep.&Presentation&Clean-up	Eating and drinking Activities	Food & Drink Prep., Presentation, & Clean-up	Food and drink preparation	186	5	True	False	False	True	0.4837511000000631
video_on	action	26	eeg	1	Df91OoSV36M	Springboard diving	Participating_in_sports&Exercise&Recreation	Sports, Exercise, and Recreation	Participating in Sports, Exercise, or Recreation	Participating in water sports	193	1	True	True	True	True	0.5944372000003568
video_on	action	26	eeg	1	HQ3iDrZeUBU	Knitting	Housework	Household Activities	Housework	Sewing, repairing, & maintaining textiles	329	6	True	False	False	True	0.6836998999997377
video_on	action	26	eeg	1	3YeIm_7u3h4	Paintball	Participating_in_sports&Exercise&Recreation	Sports, Exercise, and Recreation	Participating in Sports, Exercise, or Recreation	Playing sports	141	1	False	True	False	False	0.0
video_on	action	26	eeg	1	K_MAhZRdYKE	Shuffleboard	Relaxing&Leisure	Socializing, Relaxing, and Leisure	Relaxing and Leisure	Playing games	368	3	True	False	False	True	0.005072100000234
video_on	action	26	eeg	1	wXlbmVZWzPE	Bullfighting	Participating_in_sports&Exercise&Recreation	Sports, Exercise, and Recreation	Participating in Sports, Exercise, or Recreation	Participating in rodeo competitions	288	1	True	True	True	True	0.6892281000000366
video_on	action	26	eeg	1	2dxxCHuwiN8	Polishing forniture	Housework	Household Activities	Housework	Interior cleaning	156	6	True	False	False	True	0.4741819999999279
video_on	action	26	eeg	1	QvRP8BToES4	Beer pong	Relaxing&Leisure	Socializing, Relaxing, and Leisure	Relaxing and Leisure	Playing games	280	3	True	False	False	True	0.3559761999999864
video_on	action	26	eeg	1	LuRgu1lZAdE	Drinking coffee	Food&Drink_prep.&Presentation&Clean-up	Eating and drinking Activities	Food & Drink Prep., Presentation, & Clean-up	Eating and Drinking	68	5	True	False	False	True	0.5485502999999881
video_on	action	26	eeg	1	ruz-jn-adCM	Bathing dog	Animals&Pets	Household Activities	Animals and Pets	Care for animals and pets (not veterinary care)	90	8	True	False	False	True	0.639185400000315
video_on	action	26	eeg	1	nfzQssGfb5w	Ballet	Arts&Entertainment	Socializing, Relaxing, and Leisure	Arts and Entertainment	Attending arts and entertainment	229	2	True	False	False	True	0.4578965999999127
video_on	action	26	eeg	1	g6abBM_OKbw	Painting	Interior_maintenance&Repair&Decoration	Household Activities	Interior Maintenance, Repair, & Decoration	Interior arrangement, decoration, & repairs	217	7	True	False	False	True	0.3776975999999195
video_on	action	26	eeg	1	bZgf6PMz5po	Belly dance	Arts&Entertainment	Socializing, Relaxing, and Leisure	Arts and Entertainment	Dancing	247	2	True	False	False	True	0.5285480000002281
video_on	action	26	eeg	1	EecZ8wELwHo	Windsurfing	Participating_in_sports&Exercise&Recreation	Sports, Exercise, and Recreation	Participating in Sports, Exercise, or Recreation	Participating in water sports	237	1	True	True	False	False	0.5571191000003637
video_on	action	26	eeg	1	YhbYkV9DC1c	Arm wrestling	Participating_in_sports&Exercise&Recreation	Sports, Exercise, and Recreation	Participating in Sports, Exercise, or Recreation	Wrestling	271	1	True	True	False	False	0.6022683999999572
video_on	action	26	eeg	1	CiMTR718uFY	Using uneven bars	Participating_in_sports&Exercise&Recreation	Sports, Exercise, and Recreation	Participating in Sports, Exercise, or Recreation	Doing gymnastics	192	1	True	True	True	True	0.7216518999998698
video_on	action	26	eeg	1	1m-Hr0Nyk6I	Carving jack-o-lanterns	Interior_maintenance&Repair&Decoration	Household Activities	Interior Maintenance, Repair, & Decoration	Interior arrangement, decoration, & repairs	295	7	False	False	False	True	0.0
video_on	action	26	eeg	1	06Qwv-g83rI	Playing bagpipes	Arts&Entertainment	Socializing, Relaxing, and Leisure	Arts and Entertainment	Playing musical instruments	136	2	True	False	True	False	0.0050808999999389
video_on	action	26	eeg	1	J81pJtC91HE	High jump	Participating_in_sports&Exercise&Recreation	Sports, Exercise, and Recreation	Participating in Sports, Exercise, or Recreation	Playing sports	195	1	True	True	True	True	0.5412958000001709
video_on	action	26	eeg	1	e6ldOwQ3kZc	Discus throw	Participating_in_sports&Exercise&Recreation	Sports, Exercise, and Recreation	Participating in Sports, Exercise, or Recreation	Playing sports	92	1	True	True	True	True	0.7014177999999447
video_on	action	26	eeg	1	mvT4j4KLv6g	Putting on shoes	Grooming	Personal Care	Grooming	Washing, dressing and grooming oneself	352	4	True	False	False	True	0.8053054000001794
video_on	action	26	eeg	1	AOrk7xf6HM8	Playing blackjack	Arts&Entertainment	Socializing, Relaxing, and Leisure	Arts and Entertainment	Attending gambling establishments	343	2	True	False	False	True	0.005070600000181
video_on	action	26	eeg	1	P3nv3dKnUMc	Shoveling snow	Exterior_maintenance&Repair&Decoration	Household Activities	Exterior Maintenance, Repair, & Decoration	Exterior cleaning	183	12	True	False	False	True	0.7634197000002132
video_on	action	26	eeg	1	VuMlw1C4Alk	Making a sandwich	Food&Drink_prep.&Presentation&Clean-up	Eating and drinking Activities	Food & Drink Prep., Presentation, & Clean-up	Food and drink preparation	129	5	True	False	False	True	0.5983813000002556
video_on	action	26	eeg	1	OXdOhCJseHI	Hitting a pinata	Relaxing&Leisure	Socializing, Relaxing, and Leisure	Relaxing and Leisure	Playing games	321	3	False	False	False	True	0.0
video_on	action	26	eeg	1	pQiLnw5GG7Y	Polishing shoes	Housework	Household Activities	Housework	Sewing, repairing, & maintaining textiles	227	6	True	False	False	True	0.0050713000000541
video_on	action	26	eeg	1	LwiVDc6gvC8	Cricket	Participating_in_sports&Exercise&Recreation	Sports, Exercise, and Recreation	Participating in Sports, Exercise, or Recreation	Playing sports	82	1	True	True	False	False	0.4671312999998918
video_on	action	26	eeg	1	Vyj8KKAU25M	Brushing teeth	Grooming	Personal Care	Grooming	Washing, dressing and grooming oneself	148	4	True	False	False	True	0.9357843999996476
video_on	action	26	eeg	1	Py-J1ZazHDM	Surfing	Participating_in_sports&Exercise&Recreation	Sports, Exercise, and Recreation	Participating in Sports, Exercise, or Recreation	Participating in water sports	376	1	True	True	True	True	0.4555205000001479
video_on	action	26	eeg	1	P_D37uWqrTM	Smoking hookah	Relaxing&Leisure	Socializing, Relaxing, and Leisure	Relaxing and Leisure	Tobacco and drug use	189	3	True	False	False	True	0.7051496999997653
video_on	action	26	eeg	1	DCt-fD41qS0	Doing nails	Grooming	Personal Care	Grooming	Washing, dressing and grooming oneself	167	4	True	False	False	True	0.4706013999998504
video_on	action	26	eeg	1	ezyZdCkwaMs	Doing karate	Participating_in_sports&Exercise&Recreation	Sports, Exercise, and Recreation	Participating in Sports, Exercise, or Recreation	Participating in martial arts	99	1	True	True	True	True	0.4389028000000508
video_on	action	26	eeg	1	S_A6QtCIIy4	Hanging wallpaper	Interior_maintenance&Repair&Decoration	Household Activities	Interior Maintenance, Repair, & Decoration	Interior arrangement, decoration, & repairs	319	7	True	False	False	True	0.7563248999999814
video_on	action	26	eeg	1	Hzt9ke6DZsM	Archery	Participating_in_sports&Exercise&Recreation	Sports, Exercise, and Recreation	Participating in Sports, Exercise, or Recreation	Playing sports	250	1	True	True	True	True	0.6464313999999831
video_on	action	26	eeg	1	NmHhTnbxL1k	Washing dishes	Food&Drink_prep.&Presentation&Clean-up	Eating and drinking Activities	Food & Drink Prep., Presentation, & Clean-up	Kitchen and food clean-up	213	5	True	False	False	True	0.499270499999966
video_on	action	26	eeg	1	wQFO91ZTfEE	Fixing bicycle	Vehicles	Household Activities	Vehicles	Vehicle repair and maintenance (by self)	171	11	True	False	False	True	0.5177309000000605
video_on	action	26	eeg	1	cM4rTpZyeQw	Spinning	Participating_in_sports&Exercise&Recreation	Sports, Exercise, and Recreation	Participating in Sports, Exercise, or Recreation	Using cardiovascular equipment	117	1	True	True	True	True	0.6502533999996558
video_on	action	26	eeg	1	68tyaL1veXQ	Putting on makeup	Grooming	Personal Care	Grooming	Washing, dressing and grooming oneself	76	4	True	False	False	True	0.5390133999999307
video_on	action	26	eeg	1	4sniscrcPu8	Laying tile	Interior_maintenance&Repair&Decoration	Household Activities	Interior Maintenance, Repair, & Decoration	Interior arrangement, decoration, & repairs	330	7	True	False	False	True	0.7025672999998278
video_on	action	26	eeg	1	DVRf3ECLYtg	Horseback riding	Participating_in_sports&Exercise&Recreation	Sports, Exercise, and Recreation	Participating in Sports, Exercise, or Recreation	Participating in equestrian sports	175	1	True	True	False	False	0.5266988000003039
video_on	action	26	eeg	1	oV27az9VKbk	Fun sliding down	Arts&Entertainment	Socializing, Relaxing, and Leisure	Arts and Entertainment	Park activities	313	2	True	False	False	True	1.0118265999999494
video_on	action	26	eeg	1	Rq4dvtrTZ0A	Trimming branches or hedges	Lawn&Garden&Houseplants	Household Activities	Lawn, Garden, and Houseplants	Lawn, garden, and houseplant care	381	9	True	False	False	True	0.465965800000049
video_on	action	26	eeg	1	pAqiukX3uOk	Doing step aerobics	Participating_in_sports&Exercise&Recreation	Sports, Exercise, and Recreation	Participating in Sports, Exercise, or Recreation	Doing aerobics	230	1	True	True	True	True	0.7408543000001373
video_on	action	26	eeg	1	_5vt8fWwZ9Q	Javelin throw	Participating_in_sports&Exercise&Recreation	Sports, Exercise, and Recreation	Participating in Sports, Exercise, or Recreation	Playing sports	116	1	True	True	True	True	0.5833180999998149
video_on	action	26	eeg	1	rmT1xFMwbV8	Croquet	Participating_in_sports&Exercise&Recreation	Sports, Exercise, and Recreation	Participating in Sports, Exercise, or Recreation	Playing sports	299	1	True	True	False	False	0.574137200000223
video_on	action	26	eeg	1	wnOsg7pJhPQ	Pole vault	Participating_in_sports&Exercise&Recreation	Sports, Exercise, and Recreation	Participating in Sports, Exercise, or Recreation	Playing sports	106	1	True	True	True	True	0.4649617000000035
video_on	action	26	eeg	1	-rhyElnS1KY	Rafting	Participating_in_sports&Exercise&Recreation	Sports, Exercise, and Recreation	Participating in Sports, Exercise, or Recreation	Boating	353	1	True	True	True	True	0.521206699999766
video_on	action	26	eeg	1	_RTGzrabtEI	Playing saxophone	Arts&Entertainment	Socializing, Relaxing, and Leisure	Arts and Entertainment	Playing musical instruments	109	2	True	False	False	True	0.540505999999823
video_on	action	26	eeg	1	ONbhH8l5HX0	Swimming	Participating_in_sports&Exercise&Recreation	Sports, Exercise, and Recreation	Participating in Sports, Exercise, or Recreation	Participating in water sports	377	1	True	True	True	True	0.7099821000001612
video_on	action	26	eeg	1	yk1EuWcM6ZQ	Playing squash	Participating_in_sports&Exercise&Recreation	Sports, Exercise, and Recreation	Participating in Sports, Exercise, or Recreation	Playing racquet sports	194	1	True	True	True	True	0.4482151000001977
video_on	action	26	eeg	1	KglJgDMrjWk	Rollerblading	Participating_in_sports&Exercise&Recreation	Sports, Exercise, and Recreation	Participating in Sports, Exercise, or Recreation	Playing sports	359	1	True	True	True	True	0.7504274000002624
video_on	action	26	eeg	1	qwlghUdtPFg	Snow tubing	Participating_in_sports&Exercise&Recreation	Sports, Exercise, and Recreation	Participating in Sports, Exercise, or Recreation	Skiing, ice skating, snowboarding	372	1	True	True	True	True	0.4642372000002979
video_on	action	26	eeg	1	nt9tMdFVQ1c	Playing beach volleyball	Participating_in_sports&Exercise&Recreation	Sports, Exercise, and Recreation	Participating in Sports, Exercise, or Recreation	Playing volleyball	341	1	True	True	True	True	0.5044471999999587
video_on	action	26	eeg	1	5_9M9aY2vb8	Kayaking	Participating_in_sports&Exercise&Recreation	Sports, Exercise, and Recreation	Participating in Sports, Exercise, or Recreation	Participating in water sports	254	1	True	True	True	True	0.5868568000000778
video_on	action	26	eeg	1	FgLi_iVE-hE	Throwing darts	Relaxing&Leisure	Socializing, Relaxing, and Leisure	Relaxing and Leisure	Playing games	380	3	True	False	False	True	0.6824026000003869
video_on	action	26	eeg	1	KevhFOdnzps	Playing water polo	Participating_in_sports&Exercise&Recreation	Sports, Exercise, and Recreation	Participating in Sports, Exercise, or Recreation	Participating in water sports	130	1	True	True	True	True	0.5326700000000528
video_on	action	26	eeg	1	K3qXWXw05x4	Playing pool	Relaxing&Leisure	Socializing, Relaxing, and Leisure	Relaxing and Leisure	Playing games	348	3	True	False	False	True	0.0050734999999804
video_on	action	26	eeg	1	vxLP8UEby18	Doing crunches	Participating_in_sports&Exercise&Recreation	Sports, Exercise, and Recreation	Participating in Sports, Exercise, or Recreation	Working out	305	1	True	True	True	True	0.4289452000002711
video_on	action	26	eeg	1	5Cj6lXg88_k	Waxing skis	Appliances&Tools&Toys	Household Activities	Appliances, Tools, and Toys	Appliance, tool, and toy set-up, repair, & maintenance (by self)	387	10	True	False	False	True	0.6227210000001833
video_on	action	26	eeg	1	zhtuDcnzgq4	Calf roping	Participating_in_sports&Exercise&Recreation	Sports, Exercise, and Recreation	Participating in Sports, Exercise, or Recreation	Participating in rodeo competitions	290	1	True	True	False	False	0.4621185000000878
video_on	action	26	eeg	1	xQrZ3hwR3ig	Playing violin	Arts&Entertainment	Socializing, Relaxing, and Leisure	Arts and Entertainment	Playing musical instruments	234	2	True	False	False	True	0.4379547999997157
video_on	action	26	eeg	1	YC2aUmTteZk	Snowboarding	Participating_in_sports&Exercise&Recreation	Sports, Exercise, and Recreation	Participating in Sports, Exercise, or Recreation	Skiing, ice skating, snowboarding	373	1	True	True	True	True	0.6744908000000578
video_on	action	26	eeg	1	LPtKWeIEGZU	Playing guitarra	Arts&Entertainment	Socializing, Relaxing, and Leisure	Arts and Entertainment	Playing musical instruments	251	2	True	False	False	True	0.846254499999759
video_on	action	26	eeg	1	SyUcbbhIleo	Building sandcastles	Arts&Entertainment	Socializing, Relaxing, and Leisure	Arts and Entertainment	Beach activities	286	2	True	False	False	True	0.6153189000001476
video_on	action	26	eeg	1	v7vAYV7Y0ws	Playing accordion	Arts&Entertainment	Socializing, Relaxing, and Leisure	Arts and Entertainment	Playing musical instruments	267	2	True	False	False	True	0.5732337999997981
video_on	action	26	eeg	1	DXoaxlbfdXs	Breakdancing	Arts&Entertainment	Socializing, Relaxing, and Leisure	Arts and Entertainment	Dancing	236	2	True	False	False	True	0.5851455000001806
video_on	action	26	eeg	1	06yBwbm-V30	Playing badminton	Participating_in_sports&Exercise&Recreation	Sports, Exercise, and Recreation	Participating in Sports, Exercise, or Recreation	Playing racquet sports	268	1	True	True	False	False	0.543032999999923
video_on	action	26	eeg	1	GiKCcZV8j-s	Swinging at the playground	Arts&Entertainment	Socializing, Relaxing, and Leisure	Arts and Entertainment	Park activities	378	2	True	False	False	True	0.584270800000013
video_on	action	26	eeg	1	napxAANOqZ8	Drum corps	Arts&Entertainment	Socializing, Relaxing, and Leisure	Arts and Entertainment	Playing musical instruments	307	2	True	False	False	True	0.4685425000002396
video_on	action	26	eeg	1	_qTeGISQuzY	Fixing the roof	Exterior_maintenance&Repair&Decoration	Household Activities	Exterior Maintenance, Repair, & Decoration	Exterior repair, improvements, & decoration	311	12	True	False	False	True	0.9111729999999624
video_on	action	26	eeg	1	L3X9FYu-MEQ	Dodgeball	Participating_in_sports&Exercise&Recreation	Sports, Exercise, and Recreation	Participating in Sports, Exercise, or Recreation	Playing sports	161	1	True	True	True	True	0.2299559000002773
video_on	action	26	eeg	1	vAqpUzC0Yz8	Triple jump	Participating_in_sports&Exercise&Recreation	Sports, Exercise, and Recreation	Participating in Sports, Exercise, or Recreation	Playing sports	155	1	True	True	True	True	0.4585444999997889
video_on	action	26	eeg	1	rsCZAMIT39s	Doing kickboxing	Participating_in_sports&Exercise&Recreation	Sports, Exercise, and Recreation	Participating in Sports, Exercise, or Recreation	Participating in martial arts	70	1	True	True	True	True	0.4668510999999853
video_on	action	26	eeg	1	gvOgCXLLr1U	Mowing the lawn	Lawn&Garden&Houseplants	Household Activities	Lawn, Garden, and Houseplants	Lawn, garden, and houseplant care	218	9	True	False	False	True	0.7842883000002985
video_on	action	26	eeg	1	vUCXEdHyFKU	Hand car wash	Vehicles	Household Activities	Vehicles	Vehicle repair and maintenance (by self)	318	11	True	False	False	True	0.4931108999999196
video_on	action	26	eeg	1	ScXgOoCrwaE	Zumba	Participating_in_sports&Exercise&Recreation	Sports, Exercise, and Recreation	Participating in Sports, Exercise, or Recreation	Doing aerobics	69	1	True	True	True	True	0.4091317999996136
video_on	action	26	eeg	1	jSG6PmLqGBs	Wrapping presents	Household_management	Household Activities	Household Management	Household & personal organization and planning	179	13	True	False	False	True	0.4009763999997631
video_on	action	26	eeg	1	qeP3tnPpI4o	Using the balance beam	Participating_in_sports&Exercise&Recreation	Sports, Exercise, and Recreation	Participating in Sports, Exercise, or Recreation	Doing gymnastics	180	1	True	True	True	True	0.5762460999999348
video_on	action	26	eeg	1	xV42weK737A	Hula hoop	Relaxing&Leisure	Socializing, Relaxing, and Leisure	Relaxing and Leisure	Playing games	322	3	True	False	True	False	0.6016135999998369
video_on	action	26	eeg	1	RuJK70EaGpk	Longboarding	Participating_in_sports&Exercise&Recreation	Sports, Exercise, and Recreation	Participating in Sports, Exercise, or Recreation	Playing sports	331	1	True	True	True	True	0.5697191999997813
video_on	action	26	eeg	1	VIHEIDYscno	Vacuuming floor	Housework	Household Activities	Housework	Interior cleaning	160	6	False	False	False	True	0.0
video_on	action	26	meg	2	IfPKabSwUws	Cleaning shoes	Housework	Household Activities	Housework	Sewing, repairing, & maintaining textiles	134	6	True	False	False	True	0.4673443606006913
video_on	action	26	meg	2	ytnxrpH8xYM	High jump	Participating_in_sports&Exercise&Recreation	Sports, Exercise, and Recreation	Participating in Sports, Exercise, or Recreation	Playing sports	195	1	True	True	True	True	0.373268673196435
video_on	action	26	meg	2	9MU_Zz4Psc4	Skiing	Participating_in_sports&Exercise&Recreation	Sports, Exercise, and Recreation	Participating in Sports, Exercise, or Recreation	Skiing, ice skating, snowboarding	369	1	True	True	True	True	0.4914744898560457
video_on	action	26	meg	2	WMbRswSOOYs	Painting	Interior_maintenance&Repair&Decoration	Household Activities	Interior Maintenance, Repair, & Decoration	Interior arrangement, decoration, & repairs	217	7	True	False	False	True	0.3635778012103401
video_on	action	26	meg	2	4nILpBpGDPI	Washing hands	Grooming	Personal Care	Grooming	Washing, dressing and grooming oneself	173	4	True	False	False	True	0.4358592147473246
video_on	action	26	meg	2	BzJqoqveSdo	Making a lemonade	Food&Drink_prep.&Presentation&Clean-up	Eating and drinking Activities	Food & Drink Prep., Presentation, & Clean-up	Food and drink preparation	333	5	True	False	False	True	0.4106417564908042
video_on	action	26	meg	2	0TgvJViVyJQ	Ballet	Arts&Entertainment	Socializing, Relaxing, and Leisure	Arts and Entertainment	Attending arts and entertainment	229	2	True	False	True	False	0.8040115253534168
video_on	action	26	meg	2	kP_GxAJdyIw	Playing guitarra	Arts&Entertainment	Socializing, Relaxing, and Leisure	Arts and Entertainment	Playing musical instruments	251	2	True	False	False	True	0.347671162977349
video_on	action	26	meg	2	iepm9_h8h0Y	Arm wrestling	Participating_in_sports&Exercise&Recreation	Sports, Exercise, and Recreation	Participating in Sports, Exercise, or Recreation	Wrestling	271	1	True	True	False	False	0.5251997989835218
video_on	action	26	meg	2	mxyacNY7BOU	Throwing darts	Relaxing&Leisure	Socializing, Relaxing, and Leisure	Relaxing and Leisure	Playing games	380	3	True	False	False	True	0.3625049619586207
video_on	action	26	meg	2	PMe3DRrxI7s	Snow tubing	Participating_in_sports&Exercise&Recreation	Sports, Exercise, and Recreation	Participating in Sports, Exercise, or Recreation	Skiing, ice skating, snowboarding	372	1	True	True	False	False	0.3168317130766809
video_on	action	26	meg	2	GGBdPCiVFxU	Ice fishing	Participating_in_sports&Exercise&Recreation	Sports, Exercise, and Recreation	Participating in Sports, Exercise, or Recreation	Fishing	324	1	True	True	False	False	0.6281993114389479
video_on	action	26	meg	2	CVott28y35s	Cleaning sink	Interior_maintenance&Repair&Decoration	Household Activities	Interior Maintenance, Repair, & Decoration	Interior arrangement, decoration, & repairs	297	7	True	False	False	True	0.4131548085133545
video_on	action	26	meg	2	rn_4NVXbXdo	Belly dance	Arts&Entertainment	Socializing, Relaxing, and Leisure	Arts and Entertainment	Dancing	247	2	True	False	False	True	0.7245785543927923
video_on	action	26	meg	2	ix2hp7fzSuc	Polishing shoes	Housework	Household Activities	Housework	Sewing, repairing, & maintaining textiles	227	6	True	False	False	True	0.5573650536243804
video_on	action	26	meg	2	M2MMIq6hstI	Powerbocking	Participating_in_sports&Exercise&Recreation	Sports, Exercise, and Recreation	Participating in Sports, Exercise, or Recreation	Playing sports	350	1	True	True	False	False	0.4530373214511201
video_on	action	26	meg	2	hY26l52Gn6o	Playing polo	Participating_in_sports&Exercise&Recreation	Sports, Exercise, and Recreation	Participating in Sports, Exercise, or Recreation	Participating in equestrian sports	75	1	True	True	True	True	0.7016884992481209
video_on	action	26	meg	2	evtUzp2x8Tg	Baton twirling	Participating_in_sports&Exercise&Recreation	Sports, Exercise, and Recreation	Participating in Sports, Exercise, or Recreation	Playing sports	277	1	True	True	False	False	0.6170679248753004
video_on	action	26	meg	2	U8q3pV1_AgY	Springboard diving	Participating_in_sports&Exercise&Recreation	Sports, Exercise, and Recreation	Participating in Sports, Exercise, or Recreation	Participating in water sports	193	1	True	True	False	False	0.3740384368575178
video_on	action	26	meg	2	4qBihxyA19k	Doing motocross	Participating_in_sports&Exercise&Recreation	Sports, Exercise, and Recreation	Participating in Sports, Exercise, or Recreation	Playing sports	243	1	True	True	False	False	0.3521472633583471
video_on	action	26	meg	2	a_QNcxhHh5M	Long jump	Participating_in_sports&Exercise&Recreation	Sports, Exercise, and Recreation	Participating in Sports, Exercise, or Recreation	Playing sports	80	1	True	True	True	True	0.0050867795362137
video_on	action	26	meg	2	7QqKL1GQDIU	Snatch	Participating_in_sports&Exercise&Recreation	Sports, Exercise, and Recreation	Participating in Sports, Exercise, or Recreation	Weightlifting	79	1	True	True	True	True	0.4944469851325266
video_on	action	26	meg	2	kSu4b8I_ZWk	Braiding hair	Grooming	Personal Care	Grooming	Washing, dressing and grooming oneself	285	4	True	False	False	True	0.5824961775797419
video_on	action	26	meg	2	hCRmaSn74Vg	Putting on makeup	Grooming	Personal Care	Grooming	Washing, dressing and grooming oneself	76	4	True	False	False	True	0.4228740560938604
video_on	action	26	meg	2	bFWIP41FAnU	Grooming horse	Animals&Pets	Household Activities	Animals and Pets	Walking / exercising / playing with animals	95	8	True	False	False	True	0.5656516351737082
video_on	action	26	meg	2	1kUAsKWK2zI	Horseback riding	Participating_in_sports&Exercise&Recreation	Sports, Exercise, and Recreation	Participating in Sports, Exercise, or Recreation	Participating in equestrian sports	175	1	True	True	False	False	0.4304932071827352
video_on	action	26	meg	2	MQO9Hft8RYY	Polishing forniture	Housework	Household Activities	Housework	Interior cleaning	156	6	True	False	False	True	0.4473908784566447
video_on	action	26	meg	2	or6zvD5UpZw	Preparing salad	Food&Drink_prep.&Presentation&Clean-up	Eating and drinking Activities	Food & Drink Prep., Presentation, & Clean-up	Food and drink preparation	96	5	True	False	False	True	0.3912844638689421
video_on	action	26	meg	2	mHnXqvUfKBU	Kayaking	Participating_in_sports&Exercise&Recreation	Sports, Exercise, and Recreation	Participating in Sports, Exercise, or Recreation	Participating in water sports	254	1	True	True	False	False	0.7983620636514388
video_on	action	26	meg	2	3P2ogD0Z01U	Ping-pong	Participating_in_sports&Exercise&Recreation	Sports, Exercise, and Recreation	Participating in Sports, Exercise, or Recreation	Playing racquet sports	119	1	True	True	True	True	0.4068738387431949
video_on	action	26	meg	2	cB6Fm0mvIpg	Rope skipping	Participating_in_sports&Exercise&Recreation	Sports, Exercise, and Recreation	Participating in Sports, Exercise, or Recreation	Working out	361	1	True	True	True	True	0.4310417015803978
video_on	action	26	meg	2	3rqmZNITm3c	Tumbling	Participating_in_sports&Exercise&Recreation	Sports, Exercise, and Recreation	Participating in Sports, Exercise, or Recreation	Doing gymnastics	258	1	True	True	False	False	0.7193006923189387
video_on	action	26	meg	2	TeU0GcZQoHE	Playing squash	Participating_in_sports&Exercise&Recreation	Sports, Exercise, and Recreation	Participating in Sports, Exercise, or Recreation	Playing racquet sports	194	1	True	True	True	True	0.3761152894585393
video_on	action	26	meg	2	w31sagDTVyk	Clean and jerk	Participating_in_sports&Exercise&Recreation	Sports, Exercise, and Recreation	Participating in Sports, Exercise, or Recreation	Weightlifting	84	1	True	True	True	True	0.6317906363401562
video_on	action	26	meg	2	weV2z7-V9JQ	Spinning	Participating_in_sports&Exercise&Recreation	Sports, Exercise, and Recreation	Participating in Sports, Exercise, or Recreation	Using cardiovascular equipment	117	1	True	True	True	True	0.4477661005221307
video_on	action	26	meg	2	bKor9_GpJLg	Rock climbing	Participating_in_sports&Exercise&Recreation	Sports, Exercise, and Recreation	Participating in Sports, Exercise, or Recreation	Climbing, spelunking, caving	188	1	True	True	True	True	0.3766124662361108
video_on	action	26	meg	2	LY17fkhLHnw	Welding	Appliances&Tools&Toys	Household Activities	Appliances, Tools, and Toys	Appliance, tool, and toy set-up, repair, & maintenance (by self)	388	10	True	False	False	True	0.3196626321878284
video_on	action	26	meg	2	6Fwb3BftINo	Triple jump	Participating_in_sports&Exercise&Recreation	Sports, Exercise, and Recreation	Participating in Sports, Exercise, or Recreation	Playing sports	155	1	True	True	False	False	0.9602566482499242
video_on	action	26	meg	2	g2sdr56Yq0s	Tug of war	Relaxing&Leisure	Socializing, Relaxing, and Leisure	Relaxing and Leisure	Playing games	382	3	True	False	True	False	0.4186974089243449
video_on	action	26	meg	2	6QyQvgZYQ1k	Hitting a pinata	Relaxing&Leisure	Socializing, Relaxing, and Leisure	Relaxing and Leisure	Playing games	321	3	True	False	False	True	0.4166311217122711
video_on	action	26	meg	2	eXiSnb8e2vg	Surfing	Participating_in_sports&Exercise&Recreation	Sports, Exercise, and Recreation	Participating in Sports, Exercise, or Recreation	Participating in water sports	376	1	True	True	False	False	0.3776397234178148
video_on	action	26	meg	2	aBRGV_rZPpM	Archery	Participating_in_sports&Exercise&Recreation	Sports, Exercise, and Recreation	Participating in Sports, Exercise, or Recreation	Playing sports	250	1	True	True	False	False	0.6336945184739307
video_on	action	26	meg	2	vtQYAvxs5K0	Baking cookies	Food&Drink_prep.&Presentation&Clean-up	Eating and drinking Activities	Food & Drink Prep., Presentation, & Clean-up	Food and drink preparation	276	5	True	False	False	True	0.6336697653750889
video_on	action	26	meg	2	ryV_zoHDrCw	Rollerblading	Participating_in_sports&Exercise&Recreation	Sports, Exercise, and Recreation	Participating in Sports, Exercise, or Recreation	Playing sports	359	1	True	True	False	False	0.3692061321344226
video_on	action	26	meg	2	ZNLt4FKhPHw	Playing congas	Arts&Entertainment	Socializing, Relaxing, and Leisure	Arts and Entertainment	Playing musical instruments	345	2	True	False	False	True	0.5374001004965976
video_on	action	26	meg	2	0TMVe0u7ueY	Kite flying	Relaxing&Leisure	Socializing, Relaxing, and Leisure	Relaxing and Leisure	Playing games	327	3	True	False	False	True	0.3695575066376477
video_on	action	26	meg	2	N-_LzfyRis0	Making a cake	Food&Drink_prep.&Presentation&Clean-up	Eating and drinking Activities	Food & Drink Prep., Presentation, & Clean-up	Food and drink preparation	332	5	True	False	False	True	0.5887137550744228
video_on	action	26	meg	2	dKWB4mEpGHo	Longboarding	Participating_in_sports&Exercise&Recreation	Sports, Exercise, and Recreation	Participating in Sports, Exercise, or Recreation	Playing sports	331	1	True	True	False	False	0.8098493527504615
video_on	action	26	meg	2	vvdw5SszbYA	Using the balance beam	Participating_in_sports&Exercise&Recreation	Sports, Exercise, and Recreation	Participating in Sports, Exercise, or Recreation	Doing gymnastics	180	1	True	True	False	False	0.4123358403448947
video_on	action	26	meg	2	RBq8pOZ3aq0	Bathing dog	Animals&Pets	Household Activities	Animals and Pets	Care for animals and pets (not veterinary care)	90	8	True	False	False	True	0.3300864399061538
video_on	action	26	meg	2	mFWvAn31dG0	Mixing drinks	Food&Drink_prep.&Presentation&Clean-up	Eating and drinking Activities	Food & Drink Prep., Presentation, & Clean-up	Food and drink preparation	244	5	True	False	False	True	0.6022652182728052
video_on	action	26	meg	2	MkePseWVOPs	Sumo	Participating_in_sports&Exercise&Recreation	Sports, Exercise, and Recreation	Participating in Sports, Exercise, or Recreation	Wrestling	375	1	True	True	False	False	0.4810872082016431
video_on	action	26	meg	2	5VqW4VcEY_w	Playing water polo	Participating_in_sports&Exercise&Recreation	Sports, Exercise, and Recreation	Participating in Sports, Exercise, or Recreation	Participating in water sports	130	1	True	True	True	True	0.3328301191795617
video_on	action	26	meg	2	HjcoyVaBwGQ	Wakeboarding	Participating_in_sports&Exercise&Recreation	Sports, Exercise, and Recreation	Participating in Sports, Exercise, or Recreation	Participating in water sports	385	1	False	True	False	False	0.0
video_on	action	26	meg	2	lZEkd4Uml88	Carving jack-o-lanterns	Interior_maintenance&Repair&Decoration	Household Activities	Interior Maintenance, Repair, & Decoration	Interior arrangement, decoration, & repairs	295	7	True	False	False	True	0.4190554244560189
video_on	action	26	meg	2	Hw2pIbiDKyA	Ironing clothes	Housework	Household Activities	Housework	Laundry	83	6	True	False	False	True	0.6190671973163262
video_on	action	26	meg	2	q5OxNTNBcEk	Getting a haircut	Grooming	Personal Care	Grooming	Washing, dressing and grooming	208	4	True	False	False	True	0.683490380179137
video_on	action	26	meg	2	l7Jp85ylaFY	Playing saxophone	Arts&Entertainment	Socializing, Relaxing, and Leisure	Arts and Entertainment	Playing musical instruments	109	2	True	False	False	True	0.6833832170232199
video_on	action	26	meg	2	-EVN65SJ6Do	Discus throw	Participating_in_sports&Exercise&Recreation	Sports, Exercise, and Recreation	Participating in Sports, Exercise, or Recreation	Playing sports	92	1	True	True	True	True	0.7141239561024122
video_on	action	26	meg	2	Hd3yfLUEK_E	Blow-drying hair	Grooming	Personal Care	Grooming	Washing, dressing and grooming oneself	281	4	True	False	False	True	1.3796133371652104
video_on	action	26	meg	2	wX7LNhH-nps	Vacuuming floor	Housework	Household Activities	Housework	Interior cleaning	160	6	True	False	False	True	0.675837721733842
video_on	action	26	meg	2	3j91vlsiopc	Playing flauta	Arts&Entertainment	Socializing, Relaxing, and Leisure	Arts and Entertainment	Playing musical instruments	149	2	True	False	False	True	0.4442493370152078
video_on	action	26	meg	2	wqoD0Bdggto	Doing crunches	Participating_in_sports&Exercise&Recreation	Sports, Exercise, and Recreation	Participating in Sports, Exercise, or Recreation	Working out	305	1	True	True	True	True	0.4268623375683091
video_on	action	26	meg	2	87hnvMbIEW8	Plataform diving	Participating_in_sports&Exercise&Recreation	Sports, Exercise, and Recreation	Participating in Sports, Exercise, or Recreation	Participating in water sports	233	1	True	True	True	True	0.3983617617632262
video_on	action	26	meg	2	EwNFOqqVo08	Playing beach volleyball	Participating_in_sports&Exercise&Recreation	Sports, Exercise, and Recreation	Participating in Sports, Exercise, or Recreation	Playing volleyball	341	1	True	True	True	True	0.3105305181234143
video_on	action	26	meg	2	lBu-3IXVSO8	Shuffleboard	Relaxing&Leisure	Socializing, Relaxing, and Leisure	Relaxing and Leisure	Playing games	368	3	True	False	False	True	0.3486392539925873
video_on	action	26	meg	2	96ZsSGl56Tc	Rafting	Participating_in_sports&Exercise&Recreation	Sports, Exercise, and Recreation	Participating in Sports, Exercise, or Recreation	Boating	353	1	True	True	True	True	0.4283306240686215
video_on	action	26	meg	2	jqZg_FK2OlM	Painting fence	Exterior_maintenance&Repair&Decoration	Household Activities	Exterior Maintenance, Repair, & Decoration	Painting fence	336	12	True	False	False	True	0.5717206935514696
video_on	action	26	meg	2	mAHKR8t1jnE	Smoking hookah	Relaxing&Leisure	Socializing, Relaxing, and Leisure	Relaxing and Leisure	Tobacco and drug use	189	3	True	False	False	True	0.5484240220976062
video_on	action	26	meg	2	t-NOdECuPdA	Tai chi	Participating_in_sports&Exercise&Recreation	Sports, Exercise, and Recreation	Participating in Sports, Exercise, or Recreation	Participating in martial arts	263	1	True	True	False	False	0.829226266767364
video_on	action	26	meg	2	lEzSH3-Yt7g	Shoveling snow	Exterior_maintenance&Repair&Decoration	Household Activities	Exterior Maintenance, Repair, & Decoration	Exterior cleaning	183	12	True	False	False	True	0.4535637794760987
video_on	action	26	meg	2	f6Ib8QeUtxI	Playing blackjack	Arts&Entertainment	Socializing, Relaxing, and Leisure	Arts and Entertainment	Attending gambling establishments	343	2	True	False	False	True	0.7568702917778865
video_on	action	26	meg	2	1IcEoa453n4	Playing lacrosse	Participating_in_sports&Exercise&Recreation	Sports, Exercise, and Recreation	Participating in Sports, Exercise, or Recreation	Playing racquet sports	209	1	True	True	False	False	0.8297349145286717
video_on	action	26	meg	2	p9818fab8u4	Kneeling	Participating_in_sports&Exercise&Recreation	Sports, Exercise, and Recreation	Participating in Sports, Exercise, or Recreation	Working out	328	1	True	True	False	False	0.6365882262471132
video_on	action	26	meg	2	ZnvgM74fYOw	Slacklining	Relaxing&Leisure	Socializing, Relaxing, and Leisure	Relaxing and Leisure	Playing games	371	3	True	False	False	True	0.38202133908635
video_on	action	26	meg	2	0EbGdbNIOyo	Shot put	Participating_in_sports&Exercise&Recreation	Sports, Exercise, and Recreation	Participating in Sports, Exercise, or Recreation	Playing sports	169	1	True	True	False	False	0.7822555886814371
video_on	action	26	meg	2	dLXUfaohQdc	Playing badminton	Participating_in_sports&Exercise&Recreation	Sports, Exercise, and Recreation	Participating in Sports, Exercise, or Recreation	Playing racquet sports	268	1	True	True	True	True	0.4851494473987259
video_on	action	26	meg	2	PY5-oQyeE0E	Decorating the Christmas tree	Interior_maintenance&Repair&Decoration	Household Activities	Interior Maintenance, Repair, & Decoration	Interior arrangement, decoration, & repairs	302	7	True	False	False	True	0.5899046247941442
video_on	action	26	meg	2	zrdiWuAyQE0	Elliptical trainer	Participating_in_sports&Exercise&Recreation	Sports, Exercise, and Recreation	Participating in Sports, Exercise, or Recreation	Using cardiovascular equipment	308	1	True	True	True	True	0.808775004115887
video_on	action	26	meg	2	LwhUi21kb1Q	Preparing pasta	Food&Drink_prep.&Presentation&Clean-up	Eating and drinking Activities	Food & Drink Prep., Presentation, & Clean-up	Food and drink preparation	186	5	True	False	False	True	0.7188599649234675
video_on	action	26	meg	2	rMArA9LETrU	Hurling	Participating_in_sports&Exercise&Recreation	Sports, Exercise, and Recreation	Participating in Sports, Exercise, or Recreation	Playing sports	323	1	False	True	False	False	0.0
video_on	action	26	meg	2	Zjq-LSPv4NE	Hanging wallpaper	Interior_maintenance&Repair&Decoration	Household Activities	Interior Maintenance, Repair, & Decoration	Interior arrangement, decoration, & repairs	319	7	True	False	True	False	0.005134776525665
video_on	action	26	meg	2	PFYjhRTZH2I	Playing field hockey	Participating_in_sports&Exercise&Recreation	Sports, Exercise, and Recreation	Participating in Sports, Exercise, or Recreation	Playing hockey	94	1	True	True	False	False	0.0053539328509941
video_on	action	26	meg	2	LehK9nK6PNg	Camel ride	Participating_in_sports&Exercise&Recreation	Sports, Exercise, and Recreation	Participating in Sports, Exercise, or Recreation	Playing sports	291	1	True	True	False	False	0.44675665354589
video_on	action	26	meg	2	PsIehOlvj2o	Making an omelette	Food&Drink_prep.&Presentation&Clean-up	Eating and drinking Activities	Food & Drink Prep., Presentation, & Clean-up	Food and drink preparation	334	5	True	False	False	True	0.7510297475964762
video_on	action	26	meg	2	lkxw4QyvKGc	Scuba diving	Participating_in_sports&Exercise&Recreation	Sports, Exercise, and Recreation	Participating in Sports, Exercise, or Recreation	Participating in water sports	364	1	True	True	True	True	0.3934521788032725
video_on	action	26	meg	2	EmR9OU4yPac	Futsal	Participating_in_sports&Exercise&Recreation	Sports, Exercise, and Recreation	Participating in Sports, Exercise, or Recreation	Playing soccer	315	1	True	True	True	True	0.6660783257102594
video_on	action	26	meg	2	PKbF0QbR-sU	Beer pong	Relaxing&Leisure	Socializing, Relaxing, and Leisure	Relaxing and Leisure	Playing games	280	3	True	False	False	True	0.354251284035854
video_on	action	26	meg	2	PmmHxzXOq3s	Using the pommel horse	Participating_in_sports&Exercise&Recreation	Sports, Exercise, and Recreation	Participating in Sports, Exercise, or Recreation	Doing gymnastics	114	1	True	True	True	True	0.455755945702549
video_on	action	26	meg	2	5si55pHkDIk	Washing dishes	Food&Drink_prep.&Presentation&Clean-up	Eating and drinking Activities	Food & Drink Prep., Presentation, & Clean-up	Kitchen and food clean-up	213	5	False	False	False	True	0.0
video_on	action	26	eeg	2	qx5EzBfRz2g	Ping-pong	Participating_in_sports&Exercise&Recreation	Sports, Exercise, and Recreation	Participating in Sports, Exercise, or Recreation	Playing racquet sports	119	1	True	True	True	True	0.4641019999999116
video_on	action	26	eeg	2	jJbeUPYJBCc	Baking cookies	Food&Drink_prep.&Presentation&Clean-up	Eating and drinking Activities	Food & Drink Prep., Presentation, & Clean-up	Food and drink preparation	276	5	True	False	False	True	0.4528410000002623
video_on	action	26	eeg	2	YyaP5Heqnvw	Baton twirling	Participating_in_sports&Exercise&Recreation	Sports, Exercise, and Recreation	Participating in Sports, Exercise, or Recreation	Playing sports	277	1	True	True	True	True	0.6178486999997403
video_on	action	26	eeg	2	ze96ISMA2Sg	Getting a piercing	Grooming	Personal Care	Grooming	Washing, dressing and grooming	214	4	True	False	False	True	0.5162830999997823
video_on	action	26	eeg	2	W4CGORYiU4Q	Using the rowing machine	Participating_in_sports&Exercise&Recreation	Sports, Exercise, and Recreation	Participating in Sports, Exercise, or Recreation	Using cardiovascular equipment	384	1	True	True	True	True	0.4383804999997664
video_on	action	26	eeg	2	Ok1GR8lXjkk	Scuba diving	Participating_in_sports&Exercise&Recreation	Sports, Exercise, and Recreation	Participating in Sports, Exercise, or Recreation	Participating in water sports	364	1	True	True	True	True	0.496636199999557
video_on	action	26	eeg	2	zBS8mIdyVo8	Canoeing	Participating_in_sports&Exercise&Recreation	Sports, Exercise, and Recreation	Participating in Sports, Exercise, or Recreation	Boating	292	1	True	True	False	False	0.9747025999995458
video_on	action	26	eeg	2	JACIAA5brJM	Shaving	Grooming	Personal Care	Grooming	Washing, dressing and grooming oneself	190	4	True	False	False	True	0.5289726999999402
video_on	action	26	eeg	2	mMShtaDPI1g	Sharpening knives	Appliances&Tools&Toys	Household Activities	Appliances, Tools, and Toys	Appliance, tool, and toy set-up, repair, & maintenance (by self)	365	10	True	False	False	True	0.4239408000003095
video_on	action	26	eeg	2	wtroPBg96Yo	Shot put	Participating_in_sports&Exercise&Recreation	Sports, Exercise, and Recreation	Participating in Sports, Exercise, or Recreation	Playing sports	169	1	True	True	True	True	0.6149507000000085
video_on	action	26	eeg	2	OJqhnMx3PDI	Raking leaves	Lawn&Garden&Houseplants	Household Activities	Lawn, Garden, and Houseplants	Lawn, garden, and houseplant care	354	9	True	False	True	False	0.5064787000001161
video_on	action	26	eeg	2	zuOR04XnIL8	Assembling bicycle	Vehicles	Household Activities	Vehicles	Vehicle repair and maintenance (by self)	273	11	True	False	False	True	0.4774769999994532
video_on	action	26	eeg	2	0Hj3GgHZ_x0	Long jump	Participating_in_sports&Exercise&Recreation	Sports, Exercise, and Recreation	Participating in Sports, Exercise, or Recreation	Playing sports	80	1	True	True	True	True	0.5049065000002884
video_on	action	26	eeg	2	5gzmuC5-yyI	Spread mulch	Lawn&Garden&Houseplants	Household Activities	Lawn, Garden, and Houseplants	Lawn, garden, and houseplant care	374	9	True	False	False	True	0.5284479000001738
video_on	action	26	eeg	2	y9JEIyxhnWM	BMX	Participating_in_sports&Exercise&Recreation	Sports, Exercise, and Recreation	Participating in Sports, Exercise, or Recreation	Biking	274	1	True	True	True	True	0.524798199999168
video_on	action	26	eeg	2	lKgdR3DkAPs	Rope skipping	Participating_in_sports&Exercise&Recreation	Sports, Exercise, and Recreation	Participating in Sports, Exercise, or Recreation	Working out	361	1	True	True	True	True	0.6255401999997048
video_on	action	26	eeg	2	liTJIMTckO8	Powerbocking	Participating_in_sports&Exercise&Recreation	Sports, Exercise, and Recreation	Participating in Sports, Exercise, or Recreation	Playing sports	350	1	True	True	True	True	0.2339824999999109
video_on	action	26	eeg	2	gjM-mG2taNs	Brushing hair	Grooming	Personal Care	Grooming	Washing, dressing and grooming oneself	125	4	True	False	False	True	0.4844606000006024
video_on	action	26	eeg	2	P-Ck3hp8jAg	Tug of war	Relaxing&Leisure	Socializing, Relaxing, and Leisure	Relaxing and Leisure	Playing games	382	3	True	False	True	False	0.5056077999997797
video_on	action	26	eeg	2	1OYuj7F3nfo	Clean and jerk	Participating_in_sports&Exercise&Recreation	Sports, Exercise, and Recreation	Participating in Sports, Exercise, or Recreation	Weightlifting	84	1	True	True	True	True	0.4314188999996986
video_on	action	26	eeg	2	1G4IwA6P8Gc	Bungee jumping	Participating_in_sports&Exercise&Recreation	Sports, Exercise, and Recreation	Participating in Sports, Exercise, or Recreation	Playing sports	154	1	True	True	True	True	0.9249568000004728
video_on	action	26	eeg	2	IzFtbr9lQps	Washing hands	Grooming	Personal Care	Grooming	Washing, dressing and grooming oneself	173	4	False	False	False	True	0.0
video_on	action	26	eeg	2	5SDKQXmbmoQ	Camel ride	Participating_in_sports&Exercise&Recreation	Sports, Exercise, and Recreation	Participating in Sports, Exercise, or Recreation	Playing sports	291	1	True	True	False	False	0.6722876000003453
video_on	action	26	eeg	2	wPyjvZdPp-E	Playing racquetball	Participating_in_sports&Exercise&Recreation	Sports, Exercise, and Recreation	Participating in Sports, Exercise, or Recreation	Playing racquet sports	253	1	False	True	False	False	0.0
video_on	action	26	eeg	2	Dyyi5Opea4U	Walking the dog	Animals&Pets	Household Activities	Animals and Pets	Walking / exercising / playing with animals	221	8	True	False	True	False	0.0050709000006463
video_on	action	26	eeg	2	9wRKHge2j_o	Snatch	Participating_in_sports&Exercise&Recreation	Sports, Exercise, and Recreation	Participating in Sports, Exercise, or Recreation	Weightlifting	79	1	True	True	True	True	0.660411999999269
video_on	action	26	eeg	2	myF1389eK5c	Kneeling	Participating_in_sports&Exercise&Recreation	Sports, Exercise, and Recreation	Participating in Sports, Exercise, or Recreation	Working out	328	1	True	True	False	False	0.9589114000000336
video_on	action	26	eeg	2	3TtoHzdWzE4	Playing rubik cube	Relaxing&Leisure	Socializing, Relaxing, and Leisure	Relaxing and Leisure	Playing games	349	3	True	False	False	True	0.4313569000005373
video_on	action	26	eeg	2	WpTCiYC9n-Q	Plastering	Interior_maintenance&Repair&Decoration	Household Activities	Interior Maintenance, Repair, & Decoration	Interior arrangement, decoration, & repairs	340	7	True	False	False	True	0.5113160000000789
video_on	action	26	eeg	2	z7mGEYIF_5g	Doing fencing	Participating_in_sports&Exercise&Recreation	Sports, Exercise, and Recreation	Participating in Sports, Exercise, or Recreation	Fencing	309	1	True	True	False	False	0.4182723000003534
video_on	action	26	eeg	2	l6OFzqhBSt8	Getting a tattoo	Grooming	Personal Care	Grooming	Washing, dressing and grooming	187	4	True	False	False	True	0.613433200000145
video_on	action	26	eeg	2	mLnaL1X2ydM	Cheerleading	Arts&Entertainment	Socializing, Relaxing, and Leisure	Arts and Entertainment	Dancing	140	2	True	False	False	True	0.5742286000004242
video_on	action	26	eeg	2	UJuhbUKkjTk	Grooming dog	Animals&Pets	Household Activities	Animals and Pets	Care for animals and pets (not veterinary care)	317	8	True	False	False	True	0.6547416999992492
video_on	action	26	eeg	2	O2y2P-iZYfI	Hand washing clothes	Housework	Household Activities	Housework	Laundry	232	6	True	False	False	True	0.4778185999994093
video_on	action	26	eeg	2	Q0kPmIJ5UvA	Wakeboarding	Participating_in_sports&Exercise&Recreation	Sports, Exercise, and Recreation	Participating in Sports, Exercise, or Recreation	Participating in water sports	385	1	True	True	True	True	0.4702543000003061
video_on	action	26	eeg	2	xh2c6FxxDWM	Braiding hair	Grooming	Personal Care	Grooming	Washing, dressing and grooming oneself	285	4	True	False	False	True	0.4616863999999623
video_on	action	26	eeg	2	u1HThrwoA4A	Waterskiing	Participating_in_sports&Exercise&Recreation	Sports, Exercise, and Recreation	Participating in Sports, Exercise, or Recreation	Participating in water sports	386	1	True	True	True	True	0.5241606999998112
video_on	action	26	eeg	2	WvYPLAosbf8	Playing polo	Participating_in_sports&Exercise&Recreation	Sports, Exercise, and Recreation	Participating in Sports, Exercise, or Recreation	Participating in equestrian sports	75	1	True	True	True	True	0.0050790999994205
video_on	action	26	eeg	2	yEzC0hefRnc	Using the pommel horse	Participating_in_sports&Exercise&Recreation	Sports, Exercise, and Recreation	Participating in Sports, Exercise, or Recreation	Doing gymnastics	114	1	True	True	True	True	0.4822678000000451
video_on	action	26	eeg	2	Ovq3S65vFCw	Using parallel bars	Participating_in_sports&Exercise&Recreation	Sports, Exercise, and Recreation	Participating in Sports, Exercise, or Recreation	Doing gymnastics	88	1	True	True	True	True	0.4241048000003502
video_on	action	26	eeg	2	4SEAc191TuQ	Making a cake	Food&Drink_prep.&Presentation&Clean-up	Eating and drinking Activities	Food & Drink Prep., Presentation, & Clean-up	Food and drink preparation	332	5	True	False	False	True	0.9293556000002354
video_on	action	26	eeg	2	mpdp5hwLTH0	Starting a campfire	Participating_in_sports&Exercise&Recreation	Sports, Exercise, and Recreation	Participating in Sports, Exercise, or Recreation	Playing sports	153	1	True	True	False	False	0.5095277999998871
video_on	action	26	eeg	2	ZrLPMYK1sAQ	Tai chi	Participating_in_sports&Exercise&Recreation	Sports, Exercise, and Recreation	Participating in Sports, Exercise, or Recreation	Participating in martial arts	263	1	True	True	False	False	0.4075321999998778
video_on	action	26	eeg	2	4x8OLB_A0jU	Playing flauta	Arts&Entertainment	Socializing, Relaxing, and Leisure	Arts and Entertainment	Playing musical instruments	149	2	True	False	False	True	0.4906681000002209
video_on	action	26	eeg	2	7pbBn3IS7lI	Running a marathon	Participating_in_sports&Exercise&Recreation	Sports, Exercise, and Recreation	Participating in Sports, Exercise, or Recreation	Running	362	1	True	True	True	True	0.4767597999998543
video_on	action	26	eeg	2	ZjNENAGODy8	Ice fishing	Participating_in_sports&Exercise&Recreation	Sports, Exercise, and Recreation	Participating in Sports, Exercise, or Recreation	Fishing	324	1	True	True	False	False	0.5506732000003467
video_on	action	26	eeg	2	dnFYMTbyX7Q	Capoeira	Participating_in_sports&Exercise&Recreation	Sports, Exercise, and Recreation	Participating in Sports, Exercise, or Recreation	Participating in martial arts	294	1	True	True	True	True	0.5692844000004698
video_on	action	26	eeg	2	_TLpjYGtKe8	Skiing	Participating_in_sports&Exercise&Recreation	Sports, Exercise, and Recreation	Participating in Sports, Exercise, or Recreation	Skiing, ice skating, snowboarding	369	1	True	True	True	True	0.5356636000005892
video_on	action	26	eeg	2	sg0nYhUB7CA	Making an omelette	Food&Drink_prep.&Presentation&Clean-up	Eating and drinking Activities	Food & Drink Prep., Presentation, & Clean-up	Food and drink preparation	334	5	True	False	False	True	0.4713557000004584
video_on	action	26	eeg	2	7SvO-2BAy3M	Using the monkey bar	Arts&Entertainment	Socializing, Relaxing, and Leisure	Arts and Entertainment	Park activities	383	2	True	False	True	False	0.5071732000005795
video_on	action	26	eeg	2	Ff6olNZv1xE	Playing kickball	Participating_in_sports&Exercise&Recreation	Sports, Exercise, and Recreation	Participating in Sports, Exercise, or Recreation	Playing sports	257	1	True	True	True	True	0.5423817999999301
video_on	action	26	eeg	2	L6KMIbJFVmM	Preparing salad	Food&Drink_prep.&Presentation&Clean-up	Eating and drinking Activities	Food & Drink Prep., Presentation, & Clean-up	Food and drink preparation	96	5	True	False	False	True	0.5149238000003606
video_on	action	26	eeg	2	jcyC3EBdGS0	Painting furniture	Interior_maintenance&Repair&Decoration	Household Activities	Interior Maintenance, Repair, & Decoration	Building and repairing furniture	337	7	True	False	False	True	0.6121491000003516
video_on	action	26	eeg	2	hzzPjnQYI4w	Table soccer	Relaxing&Leisure	Socializing, Relaxing, and Leisure	Relaxing and Leisure	Playing games	379	3	True	False	False	True	0.5860083000006853
video_on	action	26	eeg	2	iDZzA5JtL7Y	Painting fence	Exterior_maintenance&Repair&Decoration	Household Activities	Exterior Maintenance, Repair, & Decoration	Painting fence	336	12	True	False	False	True	0.5970712999996977
video_on	action	26	eeg	2	VIEiuE97VKQ	Doing motocross	Participating_in_sports&Exercise&Recreation	Sports, Exercise, and Recreation	Participating in Sports, Exercise, or Recreation	Playing sports	243	1	True	True	True	True	0.5619509999996808
video_on	action	26	eeg	2	K-IohhhSiIM	Hurling	Participating_in_sports&Exercise&Recreation	Sports, Exercise, and Recreation	Participating in Sports, Exercise, or Recreation	Playing sports	323	1	True	True	True	True	0.5016887000001589
video_on	action	26	eeg	2	JWD4tZhK0RA	Beach soccer	Participating_in_sports&Exercise&Recreation	Sports, Exercise, and Recreation	Participating in Sports, Exercise, or Recreation	Playing soccer	278	1	True	True	True	True	0.5160273999999845
video_on	action	26	eeg	2	La07B-Blf-E	Grooming horse	Animals&Pets	Household Activities	Animals and Pets	Walking / exercising / playing with animals	95	8	True	False	False	True	0.5554487999997946
video_on	action	26	eeg	2	ALkRUlZDknE	Playing drums	Arts&Entertainment	Socializing, Relaxing, and Leisure	Arts and Entertainment	Playing musical instruments	346	2	True	False	False	True	0.5507473999996364
video_on	action	26	eeg	2	ZaKqQLx3LZQ	Skateboarding	Participating_in_sports&Exercise&Recreation	Sports, Exercise, and Recreation	Participating in Sports, Exercise, or Recreation	Playing sports	176	1	True	True	True	True	0.8873953000002075
video_on	action	26	eeg	2	xmCjEso1J4A	Mixing drinks	Food&Drink_prep.&Presentation&Clean-up	Eating and drinking Activities	Food & Drink Prep., Presentation, & Clean-up	Food and drink preparation	244	5	True	False	False	True	0.5857411000006323
video_on	action	26	eeg	2	3cGk6rSMj4A	Smoking a cigarette	Relaxing&Leisure	Socializing, Relaxing, and Leisure	Relaxing and Leisure	Tobacco and drug use	201	3	True	False	False	True	0.5029110999994373
video_on	action	26	eeg	2	qCpRhUkERig	Decorating the Christmas tree	Interior_maintenance&Repair&Decoration	Household Activities	Interior Maintenance, Repair, & Decoration	Interior arrangement, decoration, & repairs	302	7	True	False	False	True	0.5623106000002736
video_on	action	26	eeg	2	VmPsAmWvwD8	Cleaning sink	Interior_maintenance&Repair&Decoration	Household Activities	Interior Maintenance, Repair, & Decoration	Interior arrangement, decoration, & repairs	297	7	True	False	False	True	0.6560712000000422
video_on	action	26	eeg	2	_dsjR9HNxaU	Rock-paper-scissors	Relaxing&Leisure	Socializing, Relaxing, and Leisure	Relaxing and Leisure	Playing games	358	3	True	False	False	True	0.5037294000003385
video_on	action	26	eeg	2	GsljJM7Ie0s	Playing harmonica	Arts&Entertainment	Socializing, Relaxing, and Leisure	Arts and Entertainment	Playing musical instruments	100	2	True	False	False	True	0.574855299999399
video_on	action	26	eeg	2	W_scepAxfPA	Plataform diving	Participating_in_sports&Exercise&Recreation	Sports, Exercise, and Recreation	Participating in Sports, Exercise, or Recreation	Participating in water sports	233	1	True	True	True	True	0.7012046000008922
video_on	action	26	eeg	2	5jgLoWYZw2E	Hopscotch	Relaxing&Leisure	Socializing, Relaxing, and Leisure	Relaxing and Leisure	Playing games	241	3	True	False	False	True	0.4619288000003507
video_on	action	26	eeg	2	QWYNuhJZ30s	Ironing clothes	Housework	Household Activities	Housework	Laundry	83	6	True	False	False	True	0.4869298000003255
video_on	action	26	eeg	2	n5hxuaGkyh8	Tumbling	Participating_in_sports&Exercise&Recreation	Sports, Exercise, and Recreation	Participating in Sports, Exercise, or Recreation	Doing gymnastics	258	1	True	True	True	True	0.5689261999996233
video_on	action	26	eeg	2	m8_QjEkaRnI	Chopping wood	Interior_maintenance&Repair&Decoration	Household Activities	Interior Maintenance, Repair, & Decoration	Heating and cooling	110	7	True	False	False	True	0.6943783000006079
video_on	action	26	eeg	2	i9Te_kkM3B0	Hammer throw	Participating_in_sports&Exercise&Recreation	Sports, Exercise, and Recreation	Participating in Sports, Exercise, or Recreation	Playing sports	224	1	True	True	True	True	0.7803040999997393
video_on	action	26	eeg	2	NlmsPwRLJvk	Futsal	Participating_in_sports&Exercise&Recreation	Sports, Exercise, and Recreation	Participating in Sports, Exercise, or Recreation	Playing soccer	315	1	True	True	True	True	0.9737552999995388
video_on	action	26	eeg	2	rShnw667QPg	Sailing	Participating_in_sports&Exercise&Recreation	Sports, Exercise, and Recreation	Participating in Sports, Exercise, or Recreation	Participating in water sports	240	1	True	True	False	False	0.5046001999999135
video_on	action	26	eeg	2	6bT3BCOn6tM	Welding	Appliances&Tools&Toys	Household Activities	Appliances, Tools, and Toys	Appliance, tool, and toy set-up, repair, & maintenance (by self)	388	10	True	False	False	True	0.5458723000001555
video_on	action	26	eeg	2	quqZSeai8xE	Playing lacrosse	Participating_in_sports&Exercise&Recreation	Sports, Exercise, and Recreation	Participating in Sports, Exercise, or Recreation	Playing racquet sports	209	1	True	True	True	True	0.6707604999992327
video_on	action	26	eeg	2	sDQ0zcTP0mQ	Playing field hockey	Participating_in_sports&Exercise&Recreation	Sports, Exercise, and Recreation	Participating in Sports, Exercise, or Recreation	Playing hockey	94	1	True	True	True	True	0.7537649000005331
video_on	action	26	eeg	2	hPqA5xkt9Tw	Rock climbing	Participating_in_sports&Exercise&Recreation	Sports, Exercise, and Recreation	Participating in Sports, Exercise, or Recreation	Climbing, spelunking, caving	188	1	True	True	True	True	0.4882692000001043
video_on	action	26	eeg	2	VtTAH9-mPkM	Getting a haircut	Grooming	Personal Care	Grooming	Washing, dressing and grooming	208	4	True	False	False	True	0.473030899999685
video_on	action	26	eeg	2	f9m5JUYZgHU	Riding bumper cars	Relaxing&Leisure	Socializing, Relaxing, and Leisure	Relaxing and Leisure	Playing games	356	3	True	False	False	True	0.482730900000206
video_on	action	26	eeg	2	oHuNKH7d-xk	Playing congas	Arts&Entertainment	Socializing, Relaxing, and Leisure	Arts and Entertainment	Playing musical instruments	345	2	True	False	False	True	0.4347174000004088
video_on	action	26	eeg	2	9DA_bFiWY6s	Playing piano	Arts&Entertainment	Socializing, Relaxing, and Leisure	Arts and Entertainment	Playing musical instruments	197	2	True	False	False	True	0.4628772999994908
video_on	action	26	eeg	2	nqDwFalPlUE	Cutting the grass	Lawn&Garden&Houseplants	Household Activities	Lawn, Garden, and Houseplants	Lawn, garden, and houseplant care	301	9	True	False	False	True	0.5762303999999858
video_on	action	26	eeg	2	D4HriwkHErc	Kite flying	Relaxing&Leisure	Socializing, Relaxing, and Leisure	Relaxing and Leisure	Playing games	327	3	True	False	False	True	0.5302044999998543
video_on	action	26	eeg	2	uFJKwGe2lzQ	Mooping floor	Housework	Household Activities	Housework	Interior cleaning	335	6	True	False	False	True	0.4659670000000915
video_on	action	26	eeg	2	5xycY0Idkxs	Cleaning shoes	Housework	Household Activities	Housework	Sewing, repairing, & maintaining textiles	134	6	True	False	False	True	0.5411941999991541
video_on	action	26	eeg	2	FsEcB8InopE	Cleaning windows	Housework	Household Activities	Housework	Interior cleaning	143	6	True	False	False	True	0.4656506999999692
video_on	action	26	eeg	2	_qxcXeVyUxk	Slacklining	Relaxing&Leisure	Socializing, Relaxing, and Leisure	Relaxing and Leisure	Playing games	371	3	True	False	True	False	0.6756991000002017
video_on	action	26	eeg	2	AhBzxVYIXDo	Volleyball	Participating_in_sports&Exercise&Recreation	Sports, Exercise, and Recreation	Participating in Sports, Exercise, or Recreation	Playing volleyball	123	1	False	True	False	False	0.0
video_on	action	26	meg	3	Q_K1VL_-gwE	Javelin throw	Participating_in_sports&Exercise&Recreation	Sports, Exercise, and Recreation	Participating in Sports, Exercise, or Recreation	Playing sports	116	1	True	True	True	True	0.4908755835494958
video_on	action	26	meg	3	Yl7wWwnqfVQ	Shaving	Grooming	Personal Care	Grooming	Washing, dressing and grooming oneself	190	4	True	False	False	True	0.6907388372928835
video_on	action	26	meg	3	8GyAuuxdp3s	Playing ice hockey	Participating_in_sports&Exercise&Recreation	Sports, Exercise, and Recreation	Participating in Sports, Exercise, or Recreation	Playing hockey	347	1	True	True	True	True	0.3898370063398033
video_on	action	26	meg	3	pBnyH2O2Fzw	Hand washing clothes	Housework	Household Activities	Housework	Laundry	232	6	True	False	False	True	0.4599018023000099
video_on	action	26	meg	3	adiZinN4P4U	Dodgeball	Participating_in_sports&Exercise&Recreation	Sports, Exercise, and Recreation	Participating in Sports, Exercise, or Recreation	Playing sports	161	1	True	True	True	True	0.3799127903184853
video_on	action	26	meg	3	KaSOnWflRs4	Swinging at the playground	Arts&Entertainment	Socializing, Relaxing, and Leisure	Arts and Entertainment	Park activities	378	2	True	False	False	True	0.364174896327313
video_on	action	26	meg	3	aniB25GLeIg	Waterskiing	Participating_in_sports&Exercise&Recreation	Sports, Exercise, and Recreation	Participating in Sports, Exercise, or Recreation	Participating in water sports	386	1	True	True	True	True	0.8037413533893414
video_on	action	26	meg	3	jMDnDsCssv8	Preparing pasta	Food&Drink_prep.&Presentation&Clean-up	Eating and drinking Activities	Food & Drink Prep., Presentation, & Clean-up	Food and drink preparation	186	5	True	False	False	True	0.4985206953133456
video_on	action	26	meg	3	NiQB6BJe7j4	Using the monkey bar	Arts&Entertainment	Socializing, Relaxing, and Leisure	Arts and Entertainment	Park activities	383	2	True	False	True	False	0.6425277832313441
video_on	action	26	meg	3	4aYk7oQA31k	Getting a piercing	Grooming	Personal Care	Grooming	Washing, dressing and grooming	214	4	True	False	False	True	0.6039680563262664
video_on	action	26	meg	3	vf5dWyUgL9c	Clean and jerk	Participating_in_sports&Exercise&Recreation	Sports, Exercise, and Recreation	Participating in Sports, Exercise, or Recreation	Weightlifting	84	1	True	True	True	True	0.5482604095013812
video_on	action	26	meg	3	175esPfxgFs	Powerbocking	Participating_in_sports&Exercise&Recreation	Sports, Exercise, and Recreation	Participating in Sports, Exercise, or Recreation	Playing sports	350	1	True	True	False	False	0.9643979768734424
video_on	action	26	meg	3	Qyeauw6a0yg	Long jump	Participating_in_sports&Exercise&Recreation	Sports, Exercise, and Recreation	Participating in Sports, Exercise, or Recreation	Playing sports	80	1	True	True	True	True	0.4292238518246449
video_on	action	26	meg	3	71RIe3lpm8Q	Surfing	Participating_in_sports&Exercise&Recreation	Sports, Exercise, and Recreation	Participating in Sports, Exercise, or Recreation	Participating in water sports	376	1	True	True	False	False	0.9712636651820504
video_on	action	26	meg	3	I1ioF3ja-Uw	Paintball	Participating_in_sports&Exercise&Recreation	Sports, Exercise, and Recreation	Participating in Sports, Exercise, or Recreation	Playing sports	141	1	True	True	True	True	0.0050997598445974
video_on	action	26	meg	3	unXO-5RgspI	Playing guitarra	Arts&Entertainment	Socializing, Relaxing, and Leisure	Arts and Entertainment	Playing musical instruments	251	2	True	False	False	True	0.4690339164226316
video_on	action	26	meg	3	MVdvxlhtNnE	Running a marathon	Participating_in_sports&Exercise&Recreation	Sports, Exercise, and Recreation	Participating in Sports, Exercise, or Recreation	Running	362	1	True	True	True	True	0.6059688381501473
video_on	action	26	meg	3	3XlZXpSR1i8	Scuba diving	Participating_in_sports&Exercise&Recreation	Sports, Exercise, and Recreation	Participating in Sports, Exercise, or Recreation	Participating in water sports	364	1	True	True	True	True	0.4535160842933692
video_on	action	26	meg	3	IFyuJESibe8	Doing step aerobics	Participating_in_sports&Exercise&Recreation	Sports, Exercise, and Recreation	Participating in Sports, Exercise, or Recreation	Doing aerobics	230	1	True	True	False	False	0.3648326669353992
video_on	action	26	meg	3	FTyUUsXXLrI	Elliptical trainer	Participating_in_sports&Exercise&Recreation	Sports, Exercise, and Recreation	Participating in Sports, Exercise, or Recreation	Using cardiovascular equipment	308	1	True	True	True	True	0.4152669796603732
video_on	action	26	meg	3	inA8l2UJ8eg	Washing hands	Grooming	Personal Care	Grooming	Washing, dressing and grooming oneself	173	4	True	False	False	True	0.7732082995353267
video_on	action	26	meg	3	PPKrPoDFR94	Hitting a pinata	Relaxing&Leisure	Socializing, Relaxing, and Leisure	Relaxing and Leisure	Playing games	321	3	True	False	False	True	0.5425880058901384
video_on	action	26	meg	3	q368sCPjRoQ	Playing flauta	Arts&Entertainment	Socializing, Relaxing, and Leisure	Arts and Entertainment	Playing musical instruments	149	2	True	False	False	True	0.4308838245342485
video_on	action	26	meg	3	0Ove_iW2X2Y	Using the balance beam	Participating_in_sports&Exercise&Recreation	Sports, Exercise, and Recreation	Participating in Sports, Exercise, or Recreation	Doing gymnastics	180	1	True	True	True	True	0.4127089492976665
video_on	action	26	meg	3	S6hUQi8DodA	Doing karate	Participating_in_sports&Exercise&Recreation	Sports, Exercise, and Recreation	Participating in Sports, Exercise, or Recreation	Participating in martial arts	99	1	True	True	True	True	0.4643434896715916
video_on	action	26	meg	3	9lTG0_dXaqI	Cleaning windows	Housework	Household Activities	Housework	Interior cleaning	143	6	True	False	False	True	0.4066332498914562
video_on	action	26	meg	3	O-8PyfZ_QBU	Bullfighting	Participating_in_sports&Exercise&Recreation	Sports, Exercise, and Recreation	Participating in Sports, Exercise, or Recreation	Participating in rodeo competitions	288	1	True	True	True	True	0.5915090537746437
video_on	action	26	meg	3	jjzNHIGtAkU	Windsurfing	Participating_in_sports&Exercise&Recreation	Sports, Exercise, and Recreation	Participating in Sports, Exercise, or Recreation	Participating in water sports	237	1	True	True	True	True	0.4396220007329248
video_on	action	26	meg	3	D7aRYvUyITg	Wrapping presents	Household_management	Household Activities	Household Management	Household & personal organization and planning	179	13	True	False	False	True	0.5991816355381161
video_on	action	26	meg	3	IGG2sRoizGY	Cricket	Participating_in_sports&Exercise&Recreation	Sports, Exercise, and Recreation	Participating in Sports, Exercise, or Recreation	Playing sports	82	1	True	True	True	True	0.6232933509163558
video_on	action	26	meg	3	js-O-na7PCE	Grooming horse	Animals&Pets	Household Activities	Animals and Pets	Walking / exercising / playing with animals	95	8	True	False	False	True	0.4002897933823988
video_on	action	26	meg	3	_mfF5NcguvM	Snowboarding	Participating_in_sports&Exercise&Recreation	Sports, Exercise, and Recreation	Participating in Sports, Exercise, or Recreation	Skiing, ice skating, snowboarding	373	1	True	True	True	True	0.0051163625903427
video_on	action	26	meg	3	E-RqR1xjzAs	Vacuuming floor	Housework	Household Activities	Housework	Interior cleaning	160	6	True	False	False	True	0.690404367458541
video_on	action	26	meg	3	guTlLnGcu7E	Breakdancing	Arts&Entertainment	Socializing, Relaxing, and Leisure	Arts and Entertainment	Dancing	236	2	True	False	False	True	0.8718044619308785
video_on	action	26	meg	3	RoHv3Ce5VeI	Building sandcastles	Arts&Entertainment	Socializing, Relaxing, and Leisure	Arts and Entertainment	Beach activities	286	2	True	False	False	True	0.5527953741839156
video_on	action	26	meg	3	rxrfFfiFH-Y	Doing motocross	Participating_in_sports&Exercise&Recreation	Sports, Exercise, and Recreation	Participating in Sports, Exercise, or Recreation	Playing sports	243	1	True	True	False	False	0.4963013609522022
video_on	action	26	meg	3	P3pMfAd47-Q	Arm wrestling	Participating_in_sports&Exercise&Recreation	Sports, Exercise, and Recreation	Participating in Sports, Exercise, or Recreation	Wrestling	271	1	True	True	False	False	0.6964215044281445
video_on	action	26	meg	3	J1fqvPaZykU	Decorating the Christmas tree	Interior_maintenance&Repair&Decoration	Household Activities	Interior Maintenance, Repair, & Decoration	Interior arrangement, decoration, & repairs	302	7	True	False	False	True	0.4586750103044323
video_on	action	26	meg	3	2P04yZBh9-Y	Beer pong	Relaxing&Leisure	Socializing, Relaxing, and Leisure	Relaxing and Leisure	Playing games	280	3	True	False	False	True	0.649280572833959
video_on	action	26	meg	3	NSLTyaYvHaQ	Tumbling	Participating_in_sports&Exercise&Recreation	Sports, Exercise, and Recreation	Participating in Sports, Exercise, or Recreation	Doing gymnastics	258	1	True	True	False	False	0.3934950440889224
video_on	action	26	meg	3	p-SvDBc5YSA	Disc dog	Animals&Pets	Household Activities	Animals and Pets	Walking / exercising / playing with animals	303	8	True	False	False	True	0.6095477864728309
video_on	action	26	meg	3	P0b4pb-xy6A	Ironing clothes	Housework	Household Activities	Housework	Laundry	83	6	True	False	False	True	0.4652258501737378
video_on	action	26	meg	3	I-sbmrqWdg4	Baton twirling	Participating_in_sports&Exercise&Recreation	Sports, Exercise, and Recreation	Participating in Sports, Exercise, or Recreation	Playing sports	277	1	True	True	False	False	0.4340585714671761
video_on	action	26	meg	3	ohNIVPdyrlA	Playing drums	Arts&Entertainment	Socializing, Relaxing, and Leisure	Arts and Entertainment	Playing musical instruments	346	2	True	False	False	True	0.5841286803479306
video_on	action	26	meg	3	BK_tcqeVgqw	Horseback riding	Participating_in_sports&Exercise&Recreation	Sports, Exercise, and Recreation	Participating in Sports, Exercise, or Recreation	Participating in equestrian sports	175	1	True	True	False	False	0.4262302257120609
video_on	action	26	meg	3	Du8Q_Ohnp3E	Mixing drinks	Food&Drink_prep.&Presentation&Clean-up	Eating and drinking Activities	Food & Drink Prep., Presentation, & Clean-up	Food and drink preparation	244	5	True	False	False	True	0.5219263411127031
video_on	action	26	meg	3	MA7ncazPqw8	Playing rubik cube	Relaxing&Leisure	Socializing, Relaxing, and Leisure	Relaxing and Leisure	Playing games	349	3	True	False	False	True	0.6900445406208746
video_on	action	26	meg	3	BOGK8CWsu90	Rafting	Participating_in_sports&Exercise&Recreation	Sports, Exercise, and Recreation	Participating in Sports, Exercise, or Recreation	Boating	353	1	True	True	False	False	0.3621541911852546
video_on	action	26	meg	3	JEcR8rn7WZs	Belly dance	Arts&Entertainment	Socializing, Relaxing, and Leisure	Arts and Entertainment	Dancing	247	2	True	False	False	True	0.4822427593171596
video_on	action	26	meg	3	ClNYH56MFDA	Knitting	Housework	Household Activities	Housework	Sewing, repairing, & maintaining textiles	329	6	True	False	False	True	0.0053506122203543
video_on	action	26	meg	3	RdunqO5MNYI	Painting	Interior_maintenance&Repair&Decoration	Household Activities	Interior Maintenance, Repair, & Decoration	Interior arrangement, decoration, & repairs	217	7	True	False	False	True	0.2504919695784338
video_on	action	26	meg	3	kC5TPrf7Gyw	Tango	Arts&Entertainment	Socializing, Relaxing, and Leisure	Arts and Entertainment	Dancing	73	2	False	False	False	True	0.0
video_on	action	26	meg	3	O2HJVnqEWBs	Wakeboarding	Participating_in_sports&Exercise&Recreation	Sports, Exercise, and Recreation	Participating in Sports, Exercise, or Recreation	Participating in water sports	385	1	True	True	True	True	0.6129836493055336
video_on	action	26	meg	3	FYlk-xPsQb0	Slacklining	Relaxing&Leisure	Socializing, Relaxing, and Leisure	Relaxing and Leisure	Playing games	371	3	True	False	False	True	0.834874521009624
video_on	action	26	meg	3	gWCP0EaZ-lE	Shot put	Participating_in_sports&Exercise&Recreation	Sports, Exercise, and Recreation	Participating in Sports, Exercise, or Recreation	Playing sports	169	1	True	True	True	True	0.6911699049524032
video_on	action	26	meg	3	v1YflGqQ69U	Putting on shoes	Grooming	Personal Care	Grooming	Washing, dressing and grooming oneself	352	4	True	False	False	True	0.5880837563308887
video_on	action	26	meg	3	Ilhfk2JOGL0	Cleaning shoes	Housework	Household Activities	Housework	Sewing, repairing, & maintaining textiles	134	6	True	False	False	True	0.3877037043566815
video_on	action	26	meg	3	I5Sb4A9gmOo	Laying tile	Interior_maintenance&Repair&Decoration	Household Activities	Interior Maintenance, Repair, & Decoration	Interior arrangement, decoration, & repairs	330	7	True	False	False	True	0.3955133342533372
video_on	action	26	meg	3	oj18HWsbEV0	Sumo	Participating_in_sports&Exercise&Recreation	Sports, Exercise, and Recreation	Participating in Sports, Exercise, or Recreation	Wrestling	375	1	True	True	True	True	0.4838067380478605
video_on	action	26	meg	3	hnDLLpN0aac	Rock climbing	Participating_in_sports&Exercise&Recreation	Sports, Exercise, and Recreation	Participating in Sports, Exercise, or Recreation	Climbing, spelunking, caving	188	1	True	True	True	True	0.4359820750541985
video_on	action	26	meg	3	dCxr0SCMO_M	Bathing dog	Animals&Pets	Household Activities	Animals and Pets	Care for animals and pets (not veterinary care)	90	8	True	False	False	True	0.6390559980063699
video_on	action	26	meg	3	zehwRi1Egc4	Making a sandwich	Food&Drink_prep.&Presentation&Clean-up	Eating and drinking Activities	Food & Drink Prep., Presentation, & Clean-up	Food and drink preparation	129	5	True	False	False	True	0.5164721881737933
video_on	action	26	meg	3	6VjZHmiL084	Fixing bicycle	Vehicles	Household Activities	Vehicles	Vehicle repair and maintenance (by self)	171	11	True	False	False	True	0.8045032685040496
video_on	action	26	meg	3	1cbV5ei5T38	Playing squash	Participating_in_sports&Exercise&Recreation	Sports, Exercise, and Recreation	Participating in Sports, Exercise, or Recreation	Playing racquet sports	194	1	True	True	True	True	0.6379025600035675
video_on	action	26	meg	3	JvDpzt2j5gk	Spread mulch	Lawn&Garden&Houseplants	Household Activities	Lawn, Garden, and Houseplants	Lawn, garden, and houseplant care	374	9	True	False	False	True	0.7168531456845812
video_on	action	26	meg	3	MQgXTrnIZ9M	Polishing forniture	Housework	Household Activities	Housework	Interior cleaning	156	6	True	False	False	True	0.4610033190110698
video_on	action	26	meg	3	ySypLmd3O18	Hanging wallpaper	Interior_maintenance&Repair&Decoration	Household Activities	Interior Maintenance, Repair, & Decoration	Interior arrangement, decoration, & repairs	319	7	False	False	False	True	0.0
video_on	action	26	meg	3	5I4Q134UCcw	Doing crunches	Participating_in_sports&Exercise&Recreation	Sports, Exercise, and Recreation	Participating in Sports, Exercise, or Recreation	Working out	305	1	True	True	False	False	0.0050952318706549
video_on	action	26	meg	3	HfLiUhKrlJ8	Doing nails	Grooming	Personal Care	Grooming	Washing, dressing and grooming oneself	167	4	True	False	False	True	0.5195708643295802
video_on	action	26	meg	3	rztp3gkaUT8	Baking cookies	Food&Drink_prep.&Presentation&Clean-up	Eating and drinking Activities	Food & Drink Prep., Presentation, & Clean-up	Food and drink preparation	276	5	True	False	False	True	0.3895188373280689
video_on	action	26	meg	3	t3nTmovxou0	Discus throw	Participating_in_sports&Exercise&Recreation	Sports, Exercise, and Recreation	Participating in Sports, Exercise, or Recreation	Playing sports	92	1	False	True	False	False	0.0
video_on	action	26	meg	3	fINhOxUQjYk	Starting a campfire	Participating_in_sports&Exercise&Recreation	Sports, Exercise, and Recreation	Participating in Sports, Exercise, or Recreation	Playing sports	153	1	True	True	False	False	0.0050952318124473
video_on	action	26	meg	3	FEYLRo97vk0	Painting furniture	Interior_maintenance&Repair&Decoration	Household Activities	Interior Maintenance, Repair, & Decoration	Building and repairing furniture	337	7	True	False	False	True	0.3668790308292955
video_on	action	26	meg	3	sojUuVeeMSg	Playing accordion	Arts&Entertainment	Socializing, Relaxing, and Leisure	Arts and Entertainment	Playing musical instruments	267	2	True	False	False	True	0.43825453822501
video_on	action	26	meg	3	42RyBr14A2I	Putting in contact lenses	Grooming	Personal Care	Grooming	Washing, dressing and grooming oneself	351	4	True	False	False	True	0.3902022667462006
video_on	action	26	meg	3	ycvVHd9gsoI	Painting fence	Exterior_maintenance&Repair&Decoration	Household Activities	Exterior Maintenance, Repair, & Decoration	Painting fence	336	12	True	False	False	True	0.3906442016595974
video_on	action	26	meg	3	aORfeKmoj04	Playing water polo	Participating_in_sports&Exercise&Recreation	Sports, Exercise, and Recreation	Participating in Sports, Exercise, or Recreation	Participating in water sports	130	1	True	True	True	True	0.540765929967165
video_on	action	26	meg	3	3ZcY0NNi-nE	Zumba	Participating_in_sports&Exercise&Recreation	Sports, Exercise, and Recreation	Participating in Sports, Exercise, or Recreation	Doing aerobics	69	1	True	True	False	False	0.4788277253392152
video_on	action	26	meg	3	zrE35jz2Xpw	Playing racquetball	Participating_in_sports&Exercise&Recreation	Sports, Exercise, and Recreation	Participating in Sports, Exercise, or Recreation	Playing racquet sports	253	1	True	True	True	True	0.4549819558160379
video_on	action	26	meg	3	1cnVjR5J_TQ	Getting a haircut	Grooming	Personal Care	Grooming	Washing, dressing and grooming	208	4	True	False	False	True	0.4070923912804574
video_on	action	26	meg	3	NYXyD6PG_dA	Welding	Appliances&Tools&Toys	Household Activities	Appliances, Tools, and Toys	Appliance, tool, and toy set-up, repair, & maintenance (by self)	388	10	True	False	False	True	0.0051643596380017
video_on	action	26	meg	3	yOKS0nNls_Y	Brushing hair	Grooming	Personal Care	Grooming	Washing, dressing and grooming oneself	125	4	True	False	False	True	0.6155564712244086
video_on	action	26	meg	3	uC_Oz2aIS2Q	Playing beach volleyball	Participating_in_sports&Exercise&Recreation	Sports, Exercise, and Recreation	Participating in Sports, Exercise, or Recreation	Playing volleyball	341	1	True	True	True	True	0.3751055406173691
video_on	action	26	meg	3	JTsALjGUSd8	Archery	Participating_in_sports&Exercise&Recreation	Sports, Exercise, and Recreation	Participating in Sports, Exercise, or Recreation	Playing sports	250	1	True	True	True	True	0.5059149547014385
video_on	action	26	meg	3	R4UFCTMrV-o	Playing violin	Arts&Entertainment	Socializing, Relaxing, and Leisure	Arts and Entertainment	Playing musical instruments	234	2	True	False	False	True	0.3679144384805113
video_on	action	26	meg	3	JOXa5pLXiN8	Shoveling snow	Exterior_maintenance&Repair&Decoration	Household Activities	Exterior Maintenance, Repair, & Decoration	Exterior cleaning	183	12	True	False	False	True	0.4241911066346802
video_on	action	26	meg	3	rJPbV8PS6X8	Playing piano	Arts&Entertainment	Socializing, Relaxing, and Leisure	Arts and Entertainment	Playing musical instruments	197	2	True	False	False	True	0.6223403532640077
video_on	action	26	meg	3	A2X8ddZC7_o	Brushing teeth	Grooming	Personal Care	Grooming	Washing, dressing and grooming oneself	148	4	True	False	False	True	0.7109926781849936
video_on	action	26	meg	3	bmr0P8cbMn0	Ping-pong	Participating_in_sports&Exercise&Recreation	Sports, Exercise, and Recreation	Participating in Sports, Exercise, or Recreation	Playing racquet sports	119	1	True	True	True	True	0.3378975791856646
video_on	action	26	meg	3	GAE01CcYd9A	Triple jump	Participating_in_sports&Exercise&Recreation	Sports, Exercise, and Recreation	Participating in Sports, Exercise, or Recreation	Playing sports	155	1	False	True	False	False	0.0
video_on	action	26	eeg	3	Tr_1LL7FatM	Playing pool	Relaxing&Leisure	Socializing, Relaxing, and Leisure	Relaxing and Leisure	Playing games	348	3	True	False	False	True	0.6158326000004308
video_on	action	26	eeg	3	CZkN0zEY6eQ	Tango	Arts&Entertainment	Socializing, Relaxing, and Leisure	Arts and Entertainment	Dancing	73	2	True	False	False	True	0.2907155000002603
video_on	action	26	eeg	3	OVL-FDivw7Q	High jump	Participating_in_sports&Exercise&Recreation	Sports, Exercise, and Recreation	Participating in Sports, Exercise, or Recreation	Playing sports	195	1	True	True	True	True	0.0050797000003512
video_on	action	26	eeg	3	u2GdlWpwG30	Having an ice cream	Food&Drink_prep.&Presentation&Clean-up	Eating and drinking Activities	Food & Drink Prep., Presentation, & Clean-up	Eating and Drinking	320	5	True	False	False	True	0.4167402000002767
video_on	action	26	eeg	3	hv_M8mUUswk	Laying tile	Interior_maintenance&Repair&Decoration	Household Activities	Interior Maintenance, Repair, & Decoration	Interior arrangement, decoration, & repairs	330	7	True	False	False	True	0.4201194999996005
video_on	action	26	eeg	3	jF0s2q5bCaM	Ballet	Arts&Entertainment	Socializing, Relaxing, and Leisure	Arts and Entertainment	Attending arts and entertainment	229	2	True	False	True	False	0.0050707999998849
video_on	action	26	eeg	3	vLHAtxJPpEI	Bungee jumping	Participating_in_sports&Exercise&Recreation	Sports, Exercise, and Recreation	Participating in Sports, Exercise, or Recreation	Playing sports	154	1	True	True	True	True	0.7729859000000943
