event_name	task	subject	session	run	video_id	class_name	raw_superclass_name	superclass_level0	superclass_level1	superclass_level2	class_id	superclass_id	is_resp	stim_is_sports	resp_is_sports	resp_is_right	resp_time
video_on	action	8	meg	1	u_RzyIJi8qc	Snatch	Participating_in_sports&Exercise&Recreation	Sports, Exercise, and Recreation	Participating in Sports, Exercise, or Recreation	Weightlifting	79	1	True	True	True	True	0.2782143293770787
video_on	action	8	meg	1	lP5PmMwxWy4	Throwing darts	Relaxing&Leisure	Socializing, Relaxing, and Leisure	Relaxing and Leisure	Playing games	380	3	True	False	False	True	0.3088433772400094
video_on	action	8	meg	1	HrCEW_37mR0	Ballet	Arts&Entertainment	Socializing, Relaxing, and Leisure	Arts and Entertainment	Attending arts and entertainment	229	2	True	False	False	True	0.3729680125452432
video_on	action	8	meg	1	dmoydg9oBJM	Raking leaves	Lawn&Garden&Houseplants	Household Activities	Lawn, Garden, and Houseplants	Lawn, garden, and houseplant care	354	9	True	False	False	True	0.3484686985402732
video_on	action	8	meg	1	PkiDOKZQJJw	Brushing teeth	Grooming	Personal Care	Grooming	Washing, dressing and grooming oneself	148	4	True	False	False	True	0.3573288294610393
video_on	action	8	meg	1	eQFzhAS5_Po	Smoking hookah	Relaxing&Leisure	Socializing, Relaxing, and Leisure	Relaxing and Leisure	Tobacco and drug use	189	3	True	False	False	True	0.3597030221526438
video_on	action	8	meg	1	oKGMuHkIZXg	Wrapping presents	Household_management	Household Activities	Household Management	Household & personal organization and planning	179	13	True	False	False	True	0.5495255387968427
video_on	action	8	meg	1	o1rMbECOwDY	Plastering	Interior_maintenance&Repair&Decoration	Household Activities	Interior Maintenance, Repair, & Decoration	Interior arrangement, decoration, & repairs	340	7	True	False	False	True	0.3024567536194809
video_on	action	8	meg	1	FWhSI4R_6fo	Grooming dog	Animals&Pets	Household Activities	Animals and Pets	Care for animals and pets (not veterinary care)	317	8	True	False	False	True	0.3259508468154308
video_on	action	8	meg	1	qdl2p_rj0Po	Bullfighting	Participating_in_sports&Exercise&Recreation	Sports, Exercise, and Recreation	Participating in Sports, Exercise, or Recreation	Participating in rodeo competitions	288	1	True	True	True	True	0.3841612820933733
video_on	action	8	meg	1	dKyjVGpPTBQ	Beach soccer	Participating_in_sports&Exercise&Recreation	Sports, Exercise, and Recreation	Participating in Sports, Exercise, or Recreation	Playing soccer	278	1	True	True	True	True	0.3816029498548232
video_on	action	8	meg	1	ncK8dwkmYCU	Pole vault	Participating_in_sports&Exercise&Recreation	Sports, Exercise, and Recreation	Participating in Sports, Exercise, or Recreation	Playing sports	106	1	True	True	True	True	0.3503771087371206
video_on	action	8	meg	1	OFwRb8WI940	Rock climbing	Participating_in_sports&Exercise&Recreation	Sports, Exercise, and Recreation	Participating in Sports, Exercise, or Recreation	Climbing, spelunking, caving	188	1	True	True	True	True	0.3170140413949411
video_on	action	8	meg	1	BGJg4QRFhNg	Rafting	Participating_in_sports&Exercise&Recreation	Sports, Exercise, and Recreation	Participating in Sports, Exercise, or Recreation	Boating	353	1	True	True	True	True	0.3107804649071113
video_on	action	8	meg	1	i17HfUn3M-g	Kneeling	Participating_in_sports&Exercise&Recreation	Sports, Exercise, and Recreation	Participating in Sports, Exercise, or Recreation	Working out	328	1	True	True	True	True	0.3188222313783626
video_on	action	8	meg	1	YVf3dXTpjZQ	Long jump	Participating_in_sports&Exercise&Recreation	Sports, Exercise, and Recreation	Participating in Sports, Exercise, or Recreation	Playing sports	80	1	True	True	True	True	0.3351532961733028
video_on	action	8	meg	1	YEt5Gs9cGhI	Riding bumper cars	Relaxing&Leisure	Socializing, Relaxing, and Leisure	Relaxing and Leisure	Playing games	356	3	True	False	False	True	0.5213298497756114
video_on	action	8	meg	1	VFUmqXwlD0E	Making an omelette	Food&Drink_prep.&Presentation&Clean-up	Eating and drinking Activities	Food & Drink Prep., Presentation, & Clean-up	Food and drink preparation	334	5	True	False	False	True	0.3819570411487802
video_on	action	8	meg	1	sKXGDQPGO9k	Paintball	Participating_in_sports&Exercise&Recreation	Sports, Exercise, and Recreation	Participating in Sports, Exercise, or Recreation	Playing sports	141	1	True	True	True	True	0.37752259860099
video_on	action	8	meg	1	nWazW9KnmvQ	Camel ride	Participating_in_sports&Exercise&Recreation	Sports, Exercise, and Recreation	Participating in Sports, Exercise, or Recreation	Playing sports	291	1	True	True	False	False	0.3274028324285609
video_on	action	8	meg	1	lBmpmR7EtmM	Surfing	Participating_in_sports&Exercise&Recreation	Sports, Exercise, and Recreation	Participating in Sports, Exercise, or Recreation	Participating in water sports	376	1	True	True	True	True	0.3298159661062527
video_on	action	8	meg	1	H96JEw6G13I	Mooping floor	Housework	Household Activities	Housework	Interior cleaning	335	6	True	False	False	True	0.2711451819586727
video_on	action	8	meg	1	1idmkApWVXA	Wakeboarding	Participating_in_sports&Exercise&Recreation	Sports, Exercise, and Recreation	Participating in Sports, Exercise, or Recreation	Participating in water sports	385	1	True	True	True	True	0.3187528017133445
video_on	action	8	meg	1	dn4JJWYqHSI	Tumbling	Participating_in_sports&Exercise&Recreation	Sports, Exercise, and Recreation	Participating in Sports, Exercise, or Recreation	Doing gymnastics	258	1	True	True	True	True	0.3273922670450702
video_on	action	8	meg	1	7smnHxEYhmU	Skateboarding	Participating_in_sports&Exercise&Recreation	Sports, Exercise, and Recreation	Participating in Sports, Exercise, or Recreation	Playing sports	176	1	True	True	False	False	0.3437541223865992
video_on	action	8	meg	1	2WrAhQGTero	Skiing	Participating_in_sports&Exercise&Recreation	Sports, Exercise, and Recreation	Participating in Sports, Exercise, or Recreation	Skiing, ice skating, snowboarding	369	1	True	True	True	True	0.3126143136805694
video_on	action	8	meg	1	Gl7IFolQlMk	Decorating the Christmas tree	Interior_maintenance&Repair&Decoration	Household Activities	Interior Maintenance, Repair, & Decoration	Interior arrangement, decoration, & repairs	302	7	True	False	False	True	0.4727333100900068
video_on	action	8	meg	1	Ip4tCndSoLY	Springboard diving	Participating_in_sports&Exercise&Recreation	Sports, Exercise, and Recreation	Participating in Sports, Exercise, or Recreation	Participating in water sports	193	1	True	True	True	True	0.4315974407618341
video_on	action	8	meg	1	Xa6AAqUdHjk	Slacklining	Relaxing&Leisure	Socializing, Relaxing, and Leisure	Relaxing and Leisure	Playing games	371	3	True	False	False	True	0.3289016075987092
video_on	action	8	meg	1	HiuZEW8nFN0	Cutting the grass	Lawn&Garden&Houseplants	Household Activities	Lawn, Garden, and Houseplants	Lawn, garden, and houseplant care	301	9	True	False	False	True	0.3283706215916027
video_on	action	8	meg	1	fzXkYhX6TJw	Ice fishing	Participating_in_sports&Exercise&Recreation	Sports, Exercise, and Recreation	Participating in Sports, Exercise, or Recreation	Fishing	324	1	True	True	False	False	0.4893004357463724
video_on	action	8	meg	1	agcfl1Ou6ao	Playing piano	Arts&Entertainment	Socializing, Relaxing, and Leisure	Arts and Entertainment	Playing musical instruments	197	2	True	False	False	True	0.3208504832155086
video_on	action	8	meg	1	O91vcDbUnnI	Futsal	Participating_in_sports&Exercise&Recreation	Sports, Exercise, and Recreation	Participating in Sports, Exercise, or Recreation	Playing soccer	315	1	True	True	True	True	0.3215167061352986
video_on	action	8	meg	1	m63FQjkRC0I	Tango	Arts&Entertainment	Socializing, Relaxing, and Leisure	Arts and Entertainment	Dancing	73	2	True	False	True	False	0.4511210626969841
video_on	action	8	meg	1	qTMKjYyw-qA	Making a cake	Food&Drink_prep.&Presentation&Clean-up	Eating and drinking Activities	Food & Drink Prep., Presentation, & Clean-up	Food and drink preparation	332	5	True	False	False	True	0.3692511104973164
video_on	action	8	meg	1	orBa4mP2srY	Kite flying	Relaxing&Leisure	Socializing, Relaxing, and Leisure	Relaxing and Leisure	Playing games	327	3	True	False	True	False	0.4409828221951102
video_on	action	8	meg	1	ISZcoTB2fG4	Using the pommel horse	Participating_in_sports&Exercise&Recreation	Sports, Exercise, and Recreation	Participating in Sports, Exercise, or Recreation	Doing gymnastics	114	1	True	True	True	True	0.4338258311554455
video_on	action	8	meg	1	aQCMxyxugq8	Fun sliding down	Arts&Entertainment	Socializing, Relaxing, and Leisure	Arts and Entertainment	Park activities	313	2	True	False	False	True	0.2978719807524612
video_on	action	8	meg	1	LE9AXqUuHVU	Knitting	Housework	Household Activities	Housework	Sewing, repairing, & maintaining textiles	329	6	True	False	False	True	0.425998994778638
video_on	action	8	meg	1	gnDcQiJdeeA	Grooming horse	Animals&Pets	Household Activities	Animals and Pets	Walking / exercising / playing with animals	95	8	True	False	False	True	0.4501019559547785
video_on	action	8	meg	1	x9ZdLZOf2Ro	Fixing the roof	Exterior_maintenance&Repair&Decoration	Household Activities	Exterior Maintenance, Repair, & Decoration	Exterior repair, improvements, & decoration	311	12	True	False	False	True	0.40245539521311
video_on	action	8	meg	1	IWoJFp_EPqY	Laying tile	Interior_maintenance&Repair&Decoration	Household Activities	Interior Maintenance, Repair, & Decoration	Interior arrangement, decoration, & repairs	330	7	True	False	False	True	0.420015666954896
video_on	action	8	meg	1	NEihHGzzyOs	Longboarding	Participating_in_sports&Exercise&Recreation	Sports, Exercise, and Recreation	Participating in Sports, Exercise, or Recreation	Playing sports	331	1	True	True	True	True	0.4127874350415368
video_on	action	8	meg	1	72TQNZvWFJ4	Carving jack-o-lanterns	Interior_maintenance&Repair&Decoration	Household Activities	Interior Maintenance, Repair, & Decoration	Interior arrangement, decoration, & repairs	295	7	True	False	False	True	0.4353022680861613
video_on	action	8	meg	1	_1MAzwPXN9c	Playing drums	Arts&Entertainment	Socializing, Relaxing, and Leisure	Arts and Entertainment	Playing musical instruments	346	2	False	False	False	True	0.0
video_on	action	8	meg	1	oznyX4gpTDQ	Putting on makeup	Grooming	Personal Care	Grooming	Washing, dressing and grooming oneself	76	4	True	False	False	True	0.3148508545127697
video_on	action	8	meg	1	y8FHej7mA_g	Croquet	Participating_in_sports&Exercise&Recreation	Sports, Exercise, and Recreation	Participating in Sports, Exercise, or Recreation	Playing sports	299	1	True	True	False	False	0.3958553508382465
video_on	action	8	meg	1	om1MYCVWWVc	Playing racquetball	Participating_in_sports&Exercise&Recreation	Sports, Exercise, and Recreation	Participating in Sports, Exercise, or Recreation	Playing racquet sports	253	1	False	True	False	False	0.0
video_on	action	8	meg	1	jkJ_ZvryipU	Shaving	Grooming	Personal Care	Grooming	Washing, dressing and grooming oneself	190	4	True	False	False	True	0.4914600002111911
video_on	action	8	meg	1	xlexzR3yPKA	Sailing	Participating_in_sports&Exercise&Recreation	Sports, Exercise, and Recreation	Participating in Sports, Exercise, or Recreation	Participating in water sports	240	1	True	True	True	True	0.3314520912672378
video_on	action	8	meg	1	e_PH2Ok3zkE	Mixing drinks	Food&Drink_prep.&Presentation&Clean-up	Eating and drinking Activities	Food & Drink Prep., Presentation, & Clean-up	Food and drink preparation	244	5	True	False	False	True	0.3639554382298229
video_on	action	8	meg	1	ROuV8x8ITeU	Getting a tattoo	Grooming	Personal Care	Grooming	Washing, dressing and grooming	187	4	True	False	False	True	0.4380305520708134
video_on	action	8	meg	1	kh3RAwzATA4	Playing violin	Arts&Entertainment	Socializing, Relaxing, and Leisure	Arts and Entertainment	Playing musical instruments	234	2	True	False	False	True	0.4201913541946851
video_on	action	8	meg	1	fVoRT74ccm8	Powerbocking	Participating_in_sports&Exercise&Recreation	Sports, Exercise, and Recreation	Participating in Sports, Exercise, or Recreation	Playing sports	350	1	True	True	False	False	0.5241767679281111
video_on	action	8	meg	1	RtN4Y_0BETk	Shot put	Participating_in_sports&Exercise&Recreation	Sports, Exercise, and Recreation	Participating in Sports, Exercise, or Recreation	Playing sports	169	1	True	True	True	True	0.3551719818096899
video_on	action	8	meg	1	ERTrFIzwT7I	Hopscotch	Relaxing&Leisure	Socializing, Relaxing, and Leisure	Relaxing and Leisure	Playing games	241	3	False	False	False	True	0.0
video_on	action	8	meg	1	2z-7N-qCnyM	Clean and jerk	Participating_in_sports&Exercise&Recreation	Sports, Exercise, and Recreation	Participating in Sports, Exercise, or Recreation	Weightlifting	84	1	True	True	True	True	0.3328283079836183
video_on	action	8	meg	1	GrBsgBAvR8o	Swinging at the playground	Arts&Entertainment	Socializing, Relaxing, and Leisure	Arts and Entertainment	Park activities	378	2	True	False	False	True	0.5029584584199256
video_on	action	8	meg	1	XRAG7BsioXs	Playing lacrosse	Participating_in_sports&Exercise&Recreation	Sports, Exercise, and Recreation	Participating in Sports, Exercise, or Recreation	Playing racquet sports	209	1	True	True	True	True	0.495154564018776
video_on	action	8	meg	1	G2w5M4_R6q8	Javelin throw	Participating_in_sports&Exercise&Recreation	Sports, Exercise, and Recreation	Participating in Sports, Exercise, or Recreation	Playing sports	116	1	True	True	True	True	0.3890267923043211
video_on	action	8	meg	1	e-otSbIxkIY	Playing water polo	Participating_in_sports&Exercise&Recreation	Sports, Exercise, and Recreation	Participating in Sports, Exercise, or Recreation	Participating in water sports	130	1	True	True	True	True	0.4876561601467983
video_on	action	8	meg	1	_qVCzwVDn8w	Playing pool	Relaxing&Leisure	Socializing, Relaxing, and Leisure	Relaxing and Leisure	Playing games	348	3	True	False	True	False	0.3758010447654669
video_on	action	8	meg	1	HXbavfAj9lg	Preparing salad	Food&Drink_prep.&Presentation&Clean-up	Eating and drinking Activities	Food & Drink Prep., Presentation, & Clean-up	Food and drink preparation	96	5	True	False	True	False	0.6464119201682479
video_on	action	8	meg	1	Rp2cC3rGk1M	Archery	Participating_in_sports&Exercise&Recreation	Sports, Exercise, and Recreation	Participating in Sports, Exercise, or Recreation	Playing sports	250	1	True	True	True	True	0.3758417969602305
video_on	action	8	meg	1	yla8VyIPh5w	Bathing dog	Animals&Pets	Household Activities	Animals and Pets	Care for animals and pets (not veterinary care)	90	8	True	False	False	True	0.3579174722772222
video_on	action	8	meg	1	FRsjoFn7qkU	Playing accordion	Arts&Entertainment	Socializing, Relaxing, and Leisure	Arts and Entertainment	Playing musical instruments	267	2	True	False	False	True	0.7021929208904112
video_on	action	8	meg	1	wozM9Es0st8	Using the rowing machine	Participating_in_sports&Exercise&Recreation	Sports, Exercise, and Recreation	Participating in Sports, Exercise, or Recreation	Using cardiovascular equipment	384	1	True	True	True	True	0.2964770482130916
video_on	action	8	meg	1	Lvul1RsNmL8	Arm wrestling	Participating_in_sports&Exercise&Recreation	Sports, Exercise, and Recreation	Participating in Sports, Exercise, or Recreation	Wrestling	271	1	True	True	True	True	0.3604800306693505
video_on	action	8	meg	1	eC3_cmHb5tU	Shoveling snow	Exterior_maintenance&Repair&Decoration	Household Activities	Exterior Maintenance, Repair, & Decoration	Exterior cleaning	183	12	True	False	False	True	0.4966660176505684
video_on	action	8	meg	1	pgrNyHwbsJQ	Doing kickboxing	Participating_in_sports&Exercise&Recreation	Sports, Exercise, and Recreation	Participating in Sports, Exercise, or Recreation	Participating in martial arts	70	1	True	True	True	True	0.3106914138152206
video_on	action	8	meg	1	MKNMQY0kWSE	Painting	Interior_maintenance&Repair&Decoration	Household Activities	Interior Maintenance, Repair, & Decoration	Interior arrangement, decoration, & repairs	217	7	True	False	False	True	0.2086035430265838
video_on	action	8	meg	1	gl1sY6sHu5g	Polishing shoes	Housework	Household Activities	Housework	Sewing, repairing, & maintaining textiles	227	6	True	False	False	True	0.711178327077505
video_on	action	8	meg	1	U34YSb3OKaM	Table soccer	Relaxing&Leisure	Socializing, Relaxing, and Leisure	Relaxing and Leisure	Playing games	379	3	True	False	False	True	0.382626282750607
video_on	action	8	meg	1	jwITexVooeo	Assembling bicycle	Vehicles	Household Activities	Vehicles	Vehicle repair and maintenance (by self)	273	11	False	False	False	True	0.0
video_on	action	8	meg	1	3wELvsZzGBA	Hula hoop	Relaxing&Leisure	Socializing, Relaxing, and Leisure	Relaxing and Leisure	Playing games	322	3	True	False	True	False	0.3748619330726797
video_on	action	8	meg	1	z7n37HSWb5I	Belly dance	Arts&Entertainment	Socializing, Relaxing, and Leisure	Arts and Entertainment	Dancing	247	2	True	False	False	True	0.5192741279406619
video_on	action	8	meg	1	8DrV-8SZpyk	Spinning	Participating_in_sports&Exercise&Recreation	Sports, Exercise, and Recreation	Participating in Sports, Exercise, or Recreation	Using cardiovascular equipment	117	1	True	True	False	False	0.8893140198115361
video_on	action	8	meg	1	VflsEXwwAmM	Snowboarding	Participating_in_sports&Exercise&Recreation	Sports, Exercise, and Recreation	Participating in Sports, Exercise, or Recreation	Skiing, ice skating, snowboarding	373	1	True	True	True	True	0.3359260785364313
video_on	action	8	meg	1	rl7ulNxyqxU	Putting on shoes	Grooming	Personal Care	Grooming	Washing, dressing and grooming oneself	352	4	True	False	False	True	0.431492390659514
video_on	action	8	meg	1	zMtpWi-wg1M	Hand washing clothes	Housework	Household Activities	Housework	Laundry	232	6	True	False	False	True	0.5997717877080504
video_on	action	8	meg	1	LSBGJXCJrsM	Preparing pasta	Food&Drink_prep.&Presentation&Clean-up	Eating and drinking Activities	Food & Drink Prep., Presentation, & Clean-up	Food and drink preparation	186	5	True	False	False	True	0.2566995853840126
video_on	action	8	meg	1	c0YxEXGaWcw	Swimming	Participating_in_sports&Exercise&Recreation	Sports, Exercise, and Recreation	Participating in Sports, Exercise, or Recreation	Participating in water sports	377	1	True	True	False	False	0.7360344491889919
video_on	action	8	meg	1	sZ_XjMB3FU0	Chopping wood	Interior_maintenance&Repair&Decoration	Household Activities	Interior Maintenance, Repair, & Decoration	Heating and cooling	110	7	True	False	False	True	0.4882508403252359
video_on	action	8	meg	1	oO2OJg-Hr_E	Doing step aerobics	Participating_in_sports&Exercise&Recreation	Sports, Exercise, and Recreation	Participating in Sports, Exercise, or Recreation	Doing aerobics	230	1	True	True	True	True	0.4329718462704477
video_on	action	8	meg	1	layJLvvxczc	Hurling	Participating_in_sports&Exercise&Recreation	Sports, Exercise, and Recreation	Participating in Sports, Exercise, or Recreation	Playing sports	323	1	True	True	True	True	0.3845636722862764
video_on	action	8	meg	1	bpkyH28l2-0	Playing rubik cube	Relaxing&Leisure	Socializing, Relaxing, and Leisure	Relaxing and Leisure	Playing games	349	3	True	False	False	True	0.4355259523554196
video_on	action	8	meg	1	HqfZWLPUr7M	Waterskiing	Participating_in_sports&Exercise&Recreation	Sports, Exercise, and Recreation	Participating in Sports, Exercise, or Recreation	Participating in water sports	386	1	True	True	True	True	0.312876335200599
video_on	action	8	meg	1	vaW-n0VQSgo	Brushing hair	Grooming	Personal Care	Grooming	Washing, dressing and grooming oneself	125	4	True	False	False	True	0.4896388298984675
video_on	action	8	meg	1	IeeAawxZmVw	Zumba	Participating_in_sports&Exercise&Recreation	Sports, Exercise, and Recreation	Participating in Sports, Exercise, or Recreation	Doing aerobics	69	1	True	True	True	True	0.2891664063054122
video_on	action	8	meg	1	uxkv0oIoN1c	Smoking a cigarette	Relaxing&Leisure	Socializing, Relaxing, and Leisure	Relaxing and Leisure	Tobacco and drug use	201	3	False	False	False	True	0.0
video_on	action	8	eeg	1	sXarwBuVKR0	Cricket	Participating_in_sports&Exercise&Recreation	Sports, Exercise, and Recreation	Participating in Sports, Exercise, or Recreation	Playing sports	82	1	True	True	True	True	0.6434157000039704
video_on	action	8	eeg	1	vrqUaBn5k6s	Sailing	Participating_in_sports&Exercise&Recreation	Sports, Exercise, and Recreation	Participating in Sports, Exercise, or Recreation	Participating in water sports	240	1	True	True	False	False	0.7025458000134677
video_on	action	8	eeg	1	6L3r04yfeG4	Putting on makeup	Grooming	Personal Care	Grooming	Washing, dressing and grooming oneself	76	4	True	False	False	True	0.7239010999910533
video_on	action	8	eeg	1	77upFFRqTaQ	Grooming horse	Animals&Pets	Household Activities	Animals and Pets	Walking / exercising / playing with animals	95	8	True	False	False	True	0.6552467999863438
video_on	action	8	eeg	1	43hQNmW-6_k	Breakdancing	Arts&Entertainment	Socializing, Relaxing, and Leisure	Arts and Entertainment	Dancing	236	2	True	False	True	False	0.6765541000058874
video_on	action	8	eeg	1	yd3Q9NOUQAc	Starting a campfire	Participating_in_sports&Exercise&Recreation	Sports, Exercise, and Recreation	Participating in Sports, Exercise, or Recreation	Playing sports	153	1	True	True	False	False	0.5771972999791615
video_on	action	8	eeg	1	zp3tRZJA1gA	Fun sliding down	Arts&Entertainment	Socializing, Relaxing, and Leisure	Arts and Entertainment	Park activities	313	2	True	False	False	True	0.6787432000273839
video_on	action	8	eeg	1	WYKqtMQuyXc	Washing hands	Grooming	Personal Care	Grooming	Washing, dressing and grooming oneself	173	4	True	False	False	True	0.6206757999607362
video_on	action	8	eeg	1	6_0Nl7F4Hbg	Walking the dog	Animals&Pets	Household Activities	Animals and Pets	Walking / exercising / playing with animals	221	8	True	False	False	True	0.5919517999864183
video_on	action	8	eeg	1	xrFQsX2nS4o	Smoking hookah	Relaxing&Leisure	Socializing, Relaxing, and Leisure	Relaxing and Leisure	Tobacco and drug use	189	3	True	False	False	True	0.5409367000102066
video_on	action	8	eeg	1	3szzH8rx8mA	Discus throw	Participating_in_sports&Exercise&Recreation	Sports, Exercise, and Recreation	Participating in Sports, Exercise, or Recreation	Playing sports	92	1	True	True	True	True	0.6004997999989428
video_on	action	8	eeg	1	XxUZ7wKS9vM	Canoeing	Participating_in_sports&Exercise&Recreation	Sports, Exercise, and Recreation	Participating in Sports, Exercise, or Recreation	Boating	292	1	True	True	True	True	0.5875998999690637
video_on	action	8	eeg	1	bzPLTlx-SMg	Chopping wood	Interior_maintenance&Repair&Decoration	Household Activities	Interior Maintenance, Repair, & Decoration	Heating and cooling	110	7	True	False	False	True	0.6361451999982819
video_on	action	8	eeg	1	A8ygnicXlPQ	Raking leaves	Lawn&Garden&Houseplants	Household Activities	Lawn, Garden, and Houseplants	Lawn, garden, and houseplant care	354	9	True	False	False	True	0.5634434999665245
video_on	action	8	eeg	1	F60KxiL6cmM	Playing flauta	Arts&Entertainment	Socializing, Relaxing, and Leisure	Arts and Entertainment	Playing musical instruments	149	2	True	False	False	True	0.54816090001259
video_on	action	8	eeg	1	ZHdlTi9Du1c	Playing congas	Arts&Entertainment	Socializing, Relaxing, and Leisure	Arts and Entertainment	Playing musical instruments	345	2	True	False	False	True	0.6610611000214703
video_on	action	8	eeg	1	DimMVpIqC8I	Dodgeball	Participating_in_sports&Exercise&Recreation	Sports, Exercise, and Recreation	Participating in Sports, Exercise, or Recreation	Playing sports	161	1	True	True	True	True	0.5696876999572851
video_on	action	8	eeg	1	va1EfdPcqm0	Using the pommel horse	Participating_in_sports&Exercise&Recreation	Sports, Exercise, and Recreation	Participating in Sports, Exercise, or Recreation	Doing gymnastics	114	1	True	True	True	True	0.4592657000175677
video_on	action	8	eeg	1	WfalVDHxlcs	Doing step aerobics	Participating_in_sports&Exercise&Recreation	Sports, Exercise, and Recreation	Participating in Sports, Exercise, or Recreation	Doing aerobics	230	1	True	True	True	True	0.6484020999632776
video_on	action	8	eeg	1	sacEj2hJGAY	Playing field hockey	Participating_in_sports&Exercise&Recreation	Sports, Exercise, and Recreation	Participating in Sports, Exercise, or Recreation	Playing hockey	94	1	True	True	True	True	0.456411899998784
video_on	action	8	eeg	1	ubZQuoObWtk	Pole vault	Participating_in_sports&Exercise&Recreation	Sports, Exercise, and Recreation	Participating in Sports, Exercise, or Recreation	Playing sports	106	1	True	True	True	True	0.6456259999540634
video_on	action	8	eeg	1	AuEdwMa6qSo	Carving jack-o-lanterns	Interior_maintenance&Repair&Decoration	Household Activities	Interior Maintenance, Repair, & Decoration	Interior arrangement, decoration, & repairs	295	7	True	False	False	True	0.5361637999885716
video_on	action	8	eeg	1	4G2yRpUeyAQ	Javelin throw	Participating_in_sports&Exercise&Recreation	Sports, Exercise, and Recreation	Participating in Sports, Exercise, or Recreation	Playing sports	116	1	True	True	True	True	0.9015933999908156
video_on	action	8	eeg	1	lOUb2aAAZwE	Cleaning shoes	Housework	Household Activities	Housework	Sewing, repairing, & maintaining textiles	134	6	True	False	False	True	0.6704068999970332
video_on	action	8	eeg	1	tC9n_gkaT94	Playing bagpipes	Arts&Entertainment	Socializing, Relaxing, and Leisure	Arts and Entertainment	Playing musical instruments	136	2	True	False	False	True	0.4682045999797992
video_on	action	8	eeg	1	ezeyCsZF_YA	Using the balance beam	Participating_in_sports&Exercise&Recreation	Sports, Exercise, and Recreation	Participating in Sports, Exercise, or Recreation	Doing gymnastics	180	1	True	True	True	True	0.5939595000236295
video_on	action	8	eeg	1	KMFyixfGxm0	Shoveling snow	Exterior_maintenance&Repair&Decoration	Household Activities	Exterior Maintenance, Repair, & Decoration	Exterior cleaning	183	12	True	False	False	True	0.4936585000250488
video_on	action	8	eeg	1	MHCSzYx3Za4	Snow tubing	Participating_in_sports&Exercise&Recreation	Sports, Exercise, and Recreation	Participating in Sports, Exercise, or Recreation	Skiing, ice skating, snowboarding	372	1	True	True	True	True	0.480823700025212
video_on	action	8	eeg	1	QyanjFIx1z0	Having an ice cream	Food&Drink_prep.&Presentation&Clean-up	Eating and drinking Activities	Food & Drink Prep., Presentation, & Clean-up	Eating and Drinking	320	5	True	False	False	True	0.5092158000334166
video_on	action	8	eeg	1	GTZWrT7DzV4	Vacuuming floor	Housework	Household Activities	Housework	Interior cleaning	160	6	True	False	False	True	0.525509900006
video_on	action	8	eeg	1	RsZJI4IPX3A	Swimming	Participating_in_sports&Exercise&Recreation	Sports, Exercise, and Recreation	Participating in Sports, Exercise, or Recreation	Participating in water sports	377	1	True	True	True	True	0.4771605999558233
video_on	action	8	eeg	1	NnHnMgm_vko	Hitting a pinata	Relaxing&Leisure	Socializing, Relaxing, and Leisure	Relaxing and Leisure	Playing games	321	3	True	False	False	True	0.5821910000522621
video_on	action	8	eeg	1	JwDtRXS6UZo	Scuba diving	Participating_in_sports&Exercise&Recreation	Sports, Exercise, and Recreation	Participating in Sports, Exercise, or Recreation	Participating in water sports	364	1	True	True	True	True	0.5897337000351399
video_on	action	8	eeg	1	xKpJ0dRmC4I	Hopscotch	Relaxing&Leisure	Socializing, Relaxing, and Leisure	Relaxing and Leisure	Playing games	241	3	True	False	True	False	0.5012153999996372
video_on	action	8	eeg	1	aZlDaYi70p4	Croquet	Participating_in_sports&Exercise&Recreation	Sports, Exercise, and Recreation	Participating in Sports, Exercise, or Recreation	Playing sports	299	1	True	True	True	True	0.7338294999790378
video_on	action	8	eeg	1	eVyPxPi95Pg	Kite flying	Relaxing&Leisure	Socializing, Relaxing, and Leisure	Relaxing and Leisure	Playing games	327	3	True	False	True	False	0.522382800001651
video_on	action	8	eeg	1	LFwLtdr18ck	Laying tile	Interior_maintenance&Repair&Decoration	Household Activities	Interior Maintenance, Repair, & Decoration	Interior arrangement, decoration, & repairs	330	7	True	False	False	True	0.5745929999975488
video_on	action	8	eeg	1	2MKq2hicvDg	Using uneven bars	Participating_in_sports&Exercise&Recreation	Sports, Exercise, and Recreation	Participating in Sports, Exercise, or Recreation	Doing gymnastics	192	1	True	True	True	True	0.5228676000260748
video_on	action	8	eeg	1	XE3XZrHzOok	Arm wrestling	Participating_in_sports&Exercise&Recreation	Sports, Exercise, and Recreation	Participating in Sports, Exercise, or Recreation	Wrestling	271	1	True	True	True	True	0.5609678000328131
video_on	action	8	eeg	1	kp3vn_USmzI	Calf roping	Participating_in_sports&Exercise&Recreation	Sports, Exercise, and Recreation	Participating in Sports, Exercise, or Recreation	Participating in rodeo competitions	290	1	True	True	True	True	0.5921766000101343
video_on	action	8	eeg	1	2qlitUl8_Rs	BMX	Participating_in_sports&Exercise&Recreation	Sports, Exercise, and Recreation	Participating in Sports, Exercise, or Recreation	Biking	274	1	True	True	True	True	0.5995192999835126
video_on	action	8	eeg	1	OMcoCyyRNrI	Shot put	Participating_in_sports&Exercise&Recreation	Sports, Exercise, and Recreation	Participating in Sports, Exercise, or Recreation	Playing sports	169	1	True	True	True	True	0.5905235000536777
video_on	action	8	eeg	1	hZYxfbn5fCk	Mowing the lawn	Lawn&Garden&Houseplants	Household Activities	Lawn, Garden, and Houseplants	Lawn, garden, and houseplant care	218	9	True	False	False	True	0.5043465999769978
video_on	action	8	eeg	1	njz-8-eSSIA	Trimming branches or hedges	Lawn&Garden&Houseplants	Household Activities	Lawn, Garden, and Houseplants	Lawn, garden, and houseplant care	381	9	True	False	False	True	0.6387993000098504
video_on	action	8	eeg	1	4sE_b8JStT8	Making a sandwich	Food&Drink_prep.&Presentation&Clean-up	Eating and drinking Activities	Food & Drink Prep., Presentation, & Clean-up	Food and drink preparation	129	5	True	False	False	True	0.5902724000043236
video_on	action	8	eeg	1	84f5YnUbI4Q	Belly dance	Arts&Entertainment	Socializing, Relaxing, and Leisure	Arts and Entertainment	Dancing	247	2	True	False	False	True	0.7333550000330433
video_on	action	8	eeg	1	FFURUajsgQo	Tug of war	Relaxing&Leisure	Socializing, Relaxing, and Leisure	Relaxing and Leisure	Playing games	382	3	True	False	False	True	0.7160175000317395
video_on	action	8	eeg	1	i-i0NUWzVCU	Beer pong	Relaxing&Leisure	Socializing, Relaxing, and Leisure	Relaxing and Leisure	Playing games	280	3	True	False	False	True	0.5673826999845915
video_on	action	8	eeg	1	7plvPFoX-HQ	Ice fishing	Participating_in_sports&Exercise&Recreation	Sports, Exercise, and Recreation	Participating in Sports, Exercise, or Recreation	Fishing	324	1	True	True	False	False	0.5752646999899298
video_on	action	8	eeg	1	jaXQxb4v5sI	Wakeboarding	Participating_in_sports&Exercise&Recreation	Sports, Exercise, and Recreation	Participating in Sports, Exercise, or Recreation	Participating in water sports	385	1	True	True	True	True	0.005068400001619
video_on	action	8	eeg	1	IgR_bqCBpIE	Kayaking	Participating_in_sports&Exercise&Recreation	Sports, Exercise, and Recreation	Participating in Sports, Exercise, or Recreation	Participating in water sports	254	1	True	True	True	True	0.4801846999907866
video_on	action	8	eeg	1	Op_B2EOkPU0	Cutting the grass	Lawn&Garden&Houseplants	Household Activities	Lawn, Garden, and Houseplants	Lawn, garden, and houseplant care	301	9	True	False	False	True	0.69627329998184
video_on	action	8	eeg	1	d30xFxjG8_0	Sharpening knives	Appliances&Tools&Toys	Household Activities	Appliances, Tools, and Toys	Appliance, tool, and toy set-up, repair, & maintenance (by self)	365	10	True	False	False	True	0.6096630999818444
video_on	action	8	eeg	1	5vksCAq-uxc	Mooping floor	Housework	Household Activities	Housework	Interior cleaning	335	6	True	False	False	True	0.6354708999861032
video_on	action	8	eeg	1	xh9zsOROCaA	Hula hoop	Relaxing&Leisure	Socializing, Relaxing, and Leisure	Relaxing and Leisure	Playing games	322	3	True	False	False	True	0.592073599982541
video_on	action	8	eeg	1	s8rDhaFHJTE	Ballet	Arts&Entertainment	Socializing, Relaxing, and Leisure	Arts and Entertainment	Attending arts and entertainment	229	2	True	False	True	False	0.8334266999736428
video_on	action	8	eeg	1	B0iczNQcKFo	Volleyball	Participating_in_sports&Exercise&Recreation	Sports, Exercise, and Recreation	Participating in Sports, Exercise, or Recreation	Playing volleyball	123	1	True	True	True	True	0.7431245999759994
video_on	action	8	eeg	1	cA9UHNFkvhM	Playing pool	Relaxing&Leisure	Socializing, Relaxing, and Leisure	Relaxing and Leisure	Playing games	348	3	True	False	True	False	0.8015251000178978
video_on	action	8	eeg	1	BGgb3D6-63s	Playing drums	Arts&Entertainment	Socializing, Relaxing, and Leisure	Arts and Entertainment	Playing musical instruments	346	2	True	False	False	True	0.6691143000498414
video_on	action	8	eeg	1	-RTfnptMEOs	Spinning	Participating_in_sports&Exercise&Recreation	Sports, Exercise, and Recreation	Participating in Sports, Exercise, or Recreation	Using cardiovascular equipment	117	1	True	True	True	True	0.7438833999913186
video_on	action	8	eeg	1	v25oBO2eYyc	Polishing shoes	Housework	Household Activities	Housework	Sewing, repairing, & maintaining textiles	227	6	True	False	False	True	0.6224731999682263
video_on	action	8	eeg	1	jUyqeJ6ztqI	Blow-drying hair	Grooming	Personal Care	Grooming	Washing, dressing and grooming oneself	281	4	True	False	False	True	0.6027746999752708
video_on	action	8	eeg	1	EUst1dVIazg	Preparing salad	Food&Drink_prep.&Presentation&Clean-up	Eating and drinking Activities	Food & Drink Prep., Presentation, & Clean-up	Food and drink preparation	96	5	True	False	False	True	0.5519214000087231
video_on	action	8	eeg	1	HSyvfPI73Dc	Table soccer	Relaxing&Leisure	Socializing, Relaxing, and Leisure	Relaxing and Leisure	Playing games	379	3	True	False	True	False	0.600070400047116
video_on	action	8	eeg	1	dbwtWgyKP-I	Fixing bicycle	Vehicles	Household Activities	Vehicles	Vehicle repair and maintenance (by self)	171	11	True	False	True	False	0.7692265000077896
video_on	action	8	eeg	1	oe2ANpDBs08	Waxing skis	Appliances&Tools&Toys	Household Activities	Appliances, Tools, and Toys	Appliance, tool, and toy set-up, repair, & maintenance (by self)	387	10	True	False	False	True	0.719031399989035
video_on	action	8	eeg	1	qOxJgvWocSY	Fixing the roof	Exterior_maintenance&Repair&Decoration	Household Activities	Exterior Maintenance, Repair, & Decoration	Exterior repair, improvements, & decoration	311	12	True	False	False	True	0.669866300013382
video_on	action	8	eeg	1	IRRTibpBYdM	Playing kickball	Participating_in_sports&Exercise&Recreation	Sports, Exercise, and Recreation	Participating in Sports, Exercise, or Recreation	Playing sports	257	1	True	True	True	True	0.683160099957604
video_on	action	8	eeg	1	1h_dXXMRkf4	Triple jump	Participating_in_sports&Exercise&Recreation	Sports, Exercise, and Recreation	Participating in Sports, Exercise, or Recreation	Playing sports	155	1	True	True	True	True	0.5999712999910116
video_on	action	8	eeg	1	cWTBX-hZB_0	Washing dishes	Food&Drink_prep.&Presentation&Clean-up	Eating and drinking Activities	Food & Drink Prep., Presentation, & Clean-up	Kitchen and food clean-up	213	5	True	False	False	True	0.7474699000013061
video_on	action	8	eeg	1	8k2h3qoDQHY	Long jump	Participating_in_sports&Exercise&Recreation	Sports, Exercise, and Recreation	Participating in Sports, Exercise, or Recreation	Playing sports	80	1	True	True	True	True	0.5170399999478832
video_on	action	8	eeg	1	iBPlxqBiPZE	Playing water polo	Participating_in_sports&Exercise&Recreation	Sports, Exercise, and Recreation	Participating in Sports, Exercise, or Recreation	Participating in water sports	130	1	True	True	True	True	0.7461326000047848
video_on	action	8	eeg	1	UFSIHJ-qWX8	Cleaning windows	Housework	Household Activities	Housework	Interior cleaning	143	6	True	False	False	True	0.5951399999903515
video_on	action	8	eeg	1	lRdfxj6Jy2s	Doing fencing	Participating_in_sports&Exercise&Recreation	Sports, Exercise, and Recreation	Participating in Sports, Exercise, or Recreation	Fencing	309	1	True	True	True	True	0.6568228999967687
video_on	action	8	eeg	1	EN-SyJVHrtU	Hand car wash	Vehicles	Household Activities	Vehicles	Vehicle repair and maintenance (by self)	318	11	True	False	False	True	0.6184695999836549
video_on	action	8	eeg	1	13ohvPXhA6E	Playing squash	Participating_in_sports&Exercise&Recreation	Sports, Exercise, and Recreation	Participating in Sports, Exercise, or Recreation	Playing racquet sports	194	1	True	True	True	True	0.5574001999921165
video_on	action	8	eeg	1	E_pAWqF2z7w	Kneeling	Participating_in_sports&Exercise&Recreation	Sports, Exercise, and Recreation	Participating in Sports, Exercise, or Recreation	Working out	328	1	True	True	True	True	0.7094235999975353
video_on	action	8	eeg	1	FytaDMYDunQ	Sumo	Participating_in_sports&Exercise&Recreation	Sports, Exercise, and Recreation	Participating in Sports, Exercise, or Recreation	Wrestling	375	1	True	True	True	True	0.5989525999757461
video_on	action	8	eeg	1	F4SaDIqxLAc	Playing ice hockey	Participating_in_sports&Exercise&Recreation	Sports, Exercise, and Recreation	Participating in Sports, Exercise, or Recreation	Playing hockey	347	1	True	True	True	True	0.5821195999742486
video_on	action	8	eeg	1	wZouMjyhXgg	Ping-pong	Participating_in_sports&Exercise&Recreation	Sports, Exercise, and Recreation	Participating in Sports, Exercise, or Recreation	Playing racquet sports	119	1	True	True	True	True	0.6590137999737635
video_on	action	8	eeg	1	jiQzJdKvuiY	Shuffleboard	Relaxing&Leisure	Socializing, Relaxing, and Leisure	Relaxing and Leisure	Playing games	368	3	True	False	True	False	0.6853095999686047
video_on	action	8	eeg	1	zDB2elMTc0g	Putting in contact lenses	Grooming	Personal Care	Grooming	Washing, dressing and grooming oneself	351	4	True	False	False	True	0.8499042000039481
video_on	action	8	eeg	1	6MpuP6QNJ1M	Brushing hair	Grooming	Personal Care	Grooming	Washing, dressing and grooming oneself	125	4	True	False	False	True	0.6774516999721527
video_on	action	8	eeg	1	G4VgLjK5TsA	Paintball	Participating_in_sports&Exercise&Recreation	Sports, Exercise, and Recreation	Participating in Sports, Exercise, or Recreation	Playing sports	141	1	True	True	False	False	0.6801548000075854
video_on	action	8	eeg	1	E2KBUXxvRT8	Getting a haircut	Grooming	Personal Care	Grooming	Washing, dressing and grooming	208	4	True	False	False	True	0.6357561000040732
video_on	action	8	eeg	1	UjrLaJBB1lo	Rafting	Participating_in_sports&Exercise&Recreation	Sports, Exercise, and Recreation	Participating in Sports, Exercise, or Recreation	Boating	353	1	True	True	True	True	0.5282277000369504
video_on	action	8	eeg	1	p6yv-F_HRIA	Polishing forniture	Housework	Household Activities	Housework	Interior cleaning	156	6	True	False	False	True	0.5941024999483489
video_on	action	8	eeg	1	5ADQwfCPxYc	Throwing darts	Relaxing&Leisure	Socializing, Relaxing, and Leisure	Relaxing and Leisure	Playing games	380	3	True	False	False	True	0.6922555000055581
video_on	action	8	eeg	1	yVhXeKX-9-k	Bullfighting	Participating_in_sports&Exercise&Recreation	Sports, Exercise, and Recreation	Participating in Sports, Exercise, or Recreation	Participating in rodeo competitions	288	1	True	True	False	False	0.9643241000012496
video_on	action	8	eeg	1	rhTRlPCXtCE	Preparing pasta	Food&Drink_prep.&Presentation&Clean-up	Eating and drinking Activities	Food & Drink Prep., Presentation, & Clean-up	Food and drink preparation	186	5	False	False	False	True	0.0
video_on	action	8	meg	2	787r7mu4AuI	Running a marathon	Participating_in_sports&Exercise&Recreation	Sports, Exercise, and Recreation	Participating in Sports, Exercise, or Recreation	Running	362	1	True	True	True	True	0.347711915187574
video_on	action	8	meg	2	U5y9s3G9Y_Q	Baton twirling	Participating_in_sports&Exercise&Recreation	Sports, Exercise, and Recreation	Participating in Sports, Exercise, or Recreation	Playing sports	277	1	True	True	True	True	0.3045517183090851
video_on	action	8	meg	2	QYs4h0cSeC8	Volleyball	Participating_in_sports&Exercise&Recreation	Sports, Exercise, and Recreation	Participating in Sports, Exercise, or Recreation	Playing volleyball	123	1	True	True	True	True	0.0050973449187949
video_on	action	8	meg	2	Kl6YGJLCZ8Y	Using parallel bars	Participating_in_sports&Exercise&Recreation	Sports, Exercise, and Recreation	Participating in Sports, Exercise, or Recreation	Doing gymnastics	88	1	True	True	True	True	0.3534359383047558
video_on	action	8	meg	2	IdghwVqNCRk	Ping-pong	Participating_in_sports&Exercise&Recreation	Sports, Exercise, and Recreation	Participating in Sports, Exercise, or Recreation	Playing racquet sports	119	1	True	True	True	True	0.3273134794671932
video_on	action	8	meg	2	ZHDjymMz5QU	Playing blackjack	Arts&Entertainment	Socializing, Relaxing, and Leisure	Arts and Entertainment	Attending gambling establishments	343	2	False	False	False	True	0.0
video_on	action	8	meg	2	SXhiGEYtPXg	Trimming branches or hedges	Lawn&Garden&Houseplants	Household Activities	Lawn, Garden, and Houseplants	Lawn, garden, and houseplant care	381	9	False	False	False	True	0.0
video_on	action	8	meg	2	FuD6I1IjzF8	Sharpening knives	Appliances&Tools&Toys	Household Activities	Appliances, Tools, and Toys	Appliance, tool, and toy set-up, repair, & maintenance (by self)	365	10	True	False	False	True	0.0051000617313547
video_on	action	8	meg	2	0AW-16dWWjI	Spread mulch	Lawn&Garden&Houseplants	Household Activities	Lawn, Garden, and Houseplants	Lawn, garden, and houseplant care	374	9	True	False	False	True	0.3032346677409805
video_on	action	8	meg	2	Il6gSxVLRNE	Drinking coffee	Food&Drink_prep.&Presentation&Clean-up	Eating and drinking Activities	Food & Drink Prep., Presentation, & Clean-up	Eating and Drinking	68	5	True	False	False	True	0.5277780544902271
video_on	action	8	meg	2	K-B9CIVeQ_U	Playing polo	Participating_in_sports&Exercise&Recreation	Sports, Exercise, and Recreation	Participating in Sports, Exercise, or Recreation	Participating in equestrian sports	75	1	True	True	True	True	0.3567124147793947
video_on	action	8	meg	2	mGLI1srh4iA	Painting fence	Exterior_maintenance&Repair&Decoration	Household Activities	Exterior Maintenance, Repair, & Decoration	Painting fence	336	12	True	False	False	True	0.7116519581422835
video_on	action	8	meg	2	cq46eUwuIqs	Getting a haircut	Grooming	Personal Care	Grooming	Washing, dressing and grooming	208	4	False	False	False	True	0.0
video_on	action	8	meg	2	pRZtHcCwQbs	Doing crunches	Participating_in_sports&Exercise&Recreation	Sports, Exercise, and Recreation	Participating in Sports, Exercise, or Recreation	Working out	305	1	True	True	True	True	0.3563239105205866
video_on	action	8	meg	2	fSJDHJKBJWo	Playing congas	Arts&Entertainment	Socializing, Relaxing, and Leisure	Arts and Entertainment	Playing musical instruments	345	2	True	False	False	True	0.4843591566414034
video_on	action	8	meg	2	QjAcVc5MrPw	Dodgeball	Participating_in_sports&Exercise&Recreation	Sports, Exercise, and Recreation	Participating in Sports, Exercise, or Recreation	Playing sports	161	1	True	True	True	True	0.3739898361000087
video_on	action	8	meg	2	_D0WuWkmaTM	Kayaking	Participating_in_sports&Exercise&Recreation	Sports, Exercise, and Recreation	Participating in Sports, Exercise, or Recreation	Participating in water sports	254	1	True	True	True	True	0.4527122095087179
video_on	action	8	meg	2	GeTNs2mPayw	Using the monkey bar	Arts&Entertainment	Socializing, Relaxing, and Leisure	Arts and Entertainment	Park activities	383	2	True	False	True	False	0.4767255158549233
video_on	action	8	meg	2	iVgwKMhT6fk	Hitting a pinata	Relaxing&Leisure	Socializing, Relaxing, and Leisure	Relaxing and Leisure	Playing games	321	3	True	False	False	True	0.6763496900566679
video_on	action	8	meg	2	QhBj1FS5sXY	Playing guitarra	Arts&Entertainment	Socializing, Relaxing, and Leisure	Arts and Entertainment	Playing musical instruments	251	2	True	False	False	True	0.8692524689040511
video_on	action	8	meg	2	omCl9vCKJ_I	Using the balance beam	Participating_in_sports&Exercise&Recreation	Sports, Exercise, and Recreation	Participating in Sports, Exercise, or Recreation	Doing gymnastics	180	1	True	True	False	False	0.4855237638121252
video_on	action	8	meg	2	Zq45huBwYn4	Disc dog	Animals&Pets	Household Activities	Animals and Pets	Walking / exercising / playing with animals	303	8	False	False	False	True	0.0
video_on	action	8	meg	2	0tGXp9xSrZA	Doing karate	Participating_in_sports&Exercise&Recreation	Sports, Exercise, and Recreation	Participating in Sports, Exercise, or Recreation	Participating in martial arts	99	1	True	True	False	False	0.3258264771538961
video_on	action	8	meg	2	_MHTTX1ztkA	Washing hands	Grooming	Personal Care	Grooming	Washing, dressing and grooming oneself	173	4	True	False	False	True	0.4858422346696898
video_on	action	8	meg	2	G64dkn3Ac7M	Hand car wash	Vehicles	Household Activities	Vehicles	Vehicle repair and maintenance (by self)	318	11	True	False	False	True	0.5972143610733838
video_on	action	8	meg	2	i5a6yR2Ng6I	Polishing forniture	Housework	Household Activities	Housework	Interior cleaning	156	6	True	False	False	True	0.270190976860249
video_on	action	8	meg	2	2aBfRGuyYNM	Bungee jumping	Participating_in_sports&Exercise&Recreation	Sports, Exercise, and Recreation	Participating in Sports, Exercise, or Recreation	Playing sports	154	1	True	True	False	False	0.67019429740958
video_on	action	8	meg	2	IYS5OmWXldg	High jump	Participating_in_sports&Exercise&Recreation	Sports, Exercise, and Recreation	Participating in Sports, Exercise, or Recreation	Playing sports	195	1	False	True	False	False	0.0
video_on	action	8	meg	2	6_szJmr6erg	Using uneven bars	Participating_in_sports&Exercise&Recreation	Sports, Exercise, and Recreation	Participating in Sports, Exercise, or Recreation	Doing gymnastics	192	1	True	True	True	True	0.0050961374472535
video_on	action	8	meg	2	TS7okmk7HT8	Rollerblading	Participating_in_sports&Exercise&Recreation	Sports, Exercise, and Recreation	Participating in Sports, Exercise, or Recreation	Playing sports	359	1	True	True	True	True	0.3762227545166752
video_on	action	8	meg	2	LkGLlL6hsdE	Hanging wallpaper	Interior_maintenance&Repair&Decoration	Household Activities	Interior Maintenance, Repair, & Decoration	Interior arrangement, decoration, & repairs	319	7	True	False	False	True	0.5170517749093051
video_on	action	8	meg	2	syNDUG8Idvg	Hammer throw	Participating_in_sports&Exercise&Recreation	Sports, Exercise, and Recreation	Participating in Sports, Exercise, or Recreation	Playing sports	224	1	False	True	False	False	0.0
video_on	action	8	meg	2	puvbupvXGso	Making a sandwich	Food&Drink_prep.&Presentation&Clean-up	Eating and drinking Activities	Food & Drink Prep., Presentation, & Clean-up	Food and drink preparation	129	5	True	False	False	True	0.5812935350422777
video_on	action	8	meg	2	I035vca_tGo	Cheerleading	Arts&Entertainment	Socializing, Relaxing, and Leisure	Arts and Entertainment	Dancing	140	2	True	False	True	False	0.4161653392020525
video_on	action	8	meg	2	XTp5SbQZqgE	Playing ice hockey	Participating_in_sports&Exercise&Recreation	Sports, Exercise, and Recreation	Participating in Sports, Exercise, or Recreation	Playing hockey	347	1	True	True	True	True	0.4416765151136133
video_on	action	8	meg	2	RKANrnVLJdM	Cleaning windows	Housework	Household Activities	Housework	Interior cleaning	143	6	True	False	False	True	0.4099800616113498
video_on	action	8	meg	2	HtRXXZIw-Sk	Discus throw	Participating_in_sports&Exercise&Recreation	Sports, Exercise, and Recreation	Participating in Sports, Exercise, or Recreation	Playing sports	92	1	False	True	False	False	0.0
video_on	action	8	meg	2	t6nGuj1KZNo	Getting a piercing	Grooming	Personal Care	Grooming	Washing, dressing and grooming	214	4	True	False	False	True	0.3993826797141082
video_on	action	8	meg	2	RX0ueTU1DrU	Beer pong	Relaxing&Leisure	Socializing, Relaxing, and Leisure	Relaxing and Leisure	Playing games	280	3	True	False	False	True	0.8068089371072347
video_on	action	8	meg	2	UkAD50FvB0g	Playing squash	Participating_in_sports&Exercise&Recreation	Sports, Exercise, and Recreation	Participating in Sports, Exercise, or Recreation	Playing racquet sports	194	1	True	True	True	True	0.4562018048691243
video_on	action	8	meg	2	oXZbVBa1Ojg	Cleaning sink	Interior_maintenance&Repair&Decoration	Household Activities	Interior Maintenance, Repair, & Decoration	Interior arrangement, decoration, & repairs	297	7	True	False	False	True	0.5365675482726147
video_on	action	8	meg	2	QqEwVgH-TK4	Playing bagpipes	Arts&Entertainment	Socializing, Relaxing, and Leisure	Arts and Entertainment	Playing musical instruments	136	2	True	False	True	False	0.0050994579960388
video_on	action	8	meg	2	Oglo91tFxEc	Welding	Appliances&Tools&Toys	Household Activities	Appliances, Tools, and Toys	Appliance, tool, and toy set-up, repair, & maintenance (by self)	388	10	True	False	False	True	0.5208036936583085
video_on	action	8	meg	2	7Lf9niROYUE	Triple jump	Participating_in_sports&Exercise&Recreation	Sports, Exercise, and Recreation	Participating in Sports, Exercise, or Recreation	Playing sports	155	1	True	True	True	True	0.4267808331860578
video_on	action	8	meg	2	7tExYjJh1fQ	Fixing bicycle	Vehicles	Household Activities	Vehicles	Vehicle repair and maintenance (by self)	171	11	False	False	False	True	0.0
video_on	action	8	meg	2	40gSQ0ajmIc	Playing harmonica	Arts&Entertainment	Socializing, Relaxing, and Leisure	Arts and Entertainment	Playing musical instruments	100	2	True	False	False	True	0.1605497622040275
video_on	action	8	meg	2	ofVom9SPros	Playing saxophone	Arts&Entertainment	Socializing, Relaxing, and Leisure	Arts and Entertainment	Playing musical instruments	109	2	True	False	False	True	0.8247625429967229
video_on	action	8	meg	2	176E0e0M5Jw	Calf roping	Participating_in_sports&Exercise&Recreation	Sports, Exercise, and Recreation	Participating in Sports, Exercise, or Recreation	Participating in rodeo competitions	290	1	False	True	False	False	0.0
video_on	action	8	meg	2	GiJzWYGsA8k	Braiding hair	Grooming	Personal Care	Grooming	Washing, dressing and grooming oneself	285	4	True	False	False	True	0.457063336457395
video_on	action	8	meg	2	4-u-cw8jP2I	Playing field hockey	Participating_in_sports&Exercise&Recreation	Sports, Exercise, and Recreation	Participating in Sports, Exercise, or Recreation	Playing hockey	94	1	True	True	True	True	0.2978843573446283
video_on	action	8	meg	2	unuU2kl9NFQ	Vacuuming floor	Housework	Household Activities	Housework	Interior cleaning	160	6	True	False	False	True	0.3852824202576812
video_on	action	8	meg	2	ZG7S1O5n_lw	Scuba diving	Participating_in_sports&Exercise&Recreation	Sports, Exercise, and Recreation	Participating in Sports, Exercise, or Recreation	Participating in water sports	364	1	True	True	False	False	0.2496105146701666
video_on	action	8	meg	2	_abdFU5BmTo	Rock-paper-scissors	Relaxing&Leisure	Socializing, Relaxing, and Leisure	Relaxing and Leisure	Playing games	358	3	True	False	False	True	0.3444167228899459
video_on	action	8	meg	2	kA2B3lNTqE4	Horseback riding	Participating_in_sports&Exercise&Recreation	Sports, Exercise, and Recreation	Participating in Sports, Exercise, or Recreation	Participating in equestrian sports	175	1	True	True	True	True	0.4497822776247631
video_on	action	8	meg	2	E5xuRvUXNR0	Breakdancing	Arts&Entertainment	Socializing, Relaxing, and Leisure	Arts and Entertainment	Dancing	236	2	True	False	True	False	0.481983152740213
video_on	action	8	meg	2	8OZMJFNHsG8	Painting furniture	Interior_maintenance&Repair&Decoration	Household Activities	Interior Maintenance, Repair, & Decoration	Building and repairing furniture	337	7	True	False	False	True	0.4340356294924277
video_on	action	8	meg	2	MJLdILTDjso	Ironing clothes	Housework	Household Activities	Housework	Laundry	83	6	False	False	False	True	0.0
video_on	action	8	meg	2	L0arB1mOuSE	Playing kickball	Participating_in_sports&Exercise&Recreation	Sports, Exercise, and Recreation	Participating in Sports, Exercise, or Recreation	Playing sports	257	1	True	True	True	True	0.0543163366492081
video_on	action	8	meg	2	eVjfQDz8Y7o	Walking the dog	Animals&Pets	Household Activities	Animals and Pets	Walking / exercising / playing with animals	221	8	False	False	False	True	0.0
video_on	action	8	meg	2	-j5ppbR3NvQ	Washing dishes	Food&Drink_prep.&Presentation&Clean-up	Eating and drinking Activities	Food & Drink Prep., Presentation, & Clean-up	Kitchen and food clean-up	213	5	True	False	False	True	0.3308181682341455
video_on	action	8	meg	2	-Dw3jkkEsdk	Tai chi	Participating_in_sports&Exercise&Recreation	Sports, Exercise, and Recreation	Participating in Sports, Exercise, or Recreation	Participating in martial arts	263	1	True	True	True	True	0.355021349621893
video_on	action	8	meg	2	frj6_dG4POc	Capoeira	Participating_in_sports&Exercise&Recreation	Sports, Exercise, and Recreation	Participating in Sports, Exercise, or Recreation	Participating in martial arts	294	1	False	True	False	False	0.0
video_on	action	8	meg	2	w0v6V7geOAM	Doing nails	Grooming	Personal Care	Grooming	Washing, dressing and grooming oneself	167	4	True	False	False	True	0.5553757427842356
video_on	action	8	meg	2	OkCvNGSwK3c	Doing motocross	Participating_in_sports&Exercise&Recreation	Sports, Exercise, and Recreation	Participating in Sports, Exercise, or Recreation	Playing sports	243	1	True	True	True	True	0.6027711492570234
video_on	action	8	meg	2	Nr2ES-JzAUs	Playing badminton	Participating_in_sports&Exercise&Recreation	Sports, Exercise, and Recreation	Participating in Sports, Exercise, or Recreation	Playing racquet sports	268	1	True	True	True	True	0.7716177564861937
video_on	action	8	meg	2	VTvhiROgJ-M	Tug of war	Relaxing&Leisure	Socializing, Relaxing, and Leisure	Relaxing and Leisure	Playing games	382	3	False	False	False	True	0.0
video_on	action	8	meg	2	E_fHmOjCeB8	Waxing skis	Appliances&Tools&Toys	Household Activities	Appliances, Tools, and Toys	Appliance, tool, and toy set-up, repair, & maintenance (by self)	387	10	True	False	False	True	0.3560129863653856
video_on	action	8	meg	2	ijIOxeDi6xE	Shuffleboard	Relaxing&Leisure	Socializing, Relaxing, and Leisure	Relaxing and Leisure	Playing games	368	3	True	False	False	True	0.7880553807235628
video_on	action	8	meg	2	3pYXOYmDrJc	Plataform diving	Participating_in_sports&Exercise&Recreation	Sports, Exercise, and Recreation	Participating in Sports, Exercise, or Recreation	Participating in water sports	233	1	True	True	True	True	0.294486831759059
video_on	action	8	meg	2	zeNCrPxqAPY	Playing flauta	Arts&Entertainment	Socializing, Relaxing, and Leisure	Arts and Entertainment	Playing musical instruments	149	2	True	False	False	True	1.428246100996148
video_on	action	8	meg	2	MO1gm3Yxewk	Cleaning shoes	Housework	Household Activities	Housework	Sewing, repairing, & maintaining textiles	134	6	True	False	False	True	0.940641560295262
video_on	action	8	meg	2	8sdDpqF276w	Making a lemonade	Food&Drink_prep.&Presentation&Clean-up	Eating and drinking Activities	Food & Drink Prep., Presentation, & Clean-up	Food and drink preparation	333	5	True	False	False	True	0.7247732593150431
video_on	action	8	meg	2	VLICUHlwl88	Windsurfing	Participating_in_sports&Exercise&Recreation	Sports, Exercise, and Recreation	Participating in Sports, Exercise, or Recreation	Participating in water sports	237	1	False	True	False	False	0.0
video_on	action	8	meg	2	M1Nj2YKgrDc	Playing beach volleyball	Participating_in_sports&Exercise&Recreation	Sports, Exercise, and Recreation	Participating in Sports, Exercise, or Recreation	Playing volleyball	341	1	False	True	False	False	0.0
video_on	action	8	meg	2	zVzvtVHqj90	Drum corps	Arts&Entertainment	Socializing, Relaxing, and Leisure	Arts and Entertainment	Playing musical instruments	307	2	True	False	False	True	0.503399185861781
video_on	action	8	meg	2	krAtM0YNHAg	Elliptical trainer	Participating_in_sports&Exercise&Recreation	Sports, Exercise, and Recreation	Participating in Sports, Exercise, or Recreation	Using cardiovascular equipment	308	1	False	True	False	False	0.0
video_on	action	8	meg	2	EUVWX9Z6-Zo	Baking cookies	Food&Drink_prep.&Presentation&Clean-up	Eating and drinking Activities	Food & Drink Prep., Presentation, & Clean-up	Food and drink preparation	276	5	True	False	True	False	0.0051441344758131
video_on	action	8	meg	2	L0U6VyXM7i8	Rope skipping	Participating_in_sports&Exercise&Recreation	Sports, Exercise, and Recreation	Participating in Sports, Exercise, or Recreation	Working out	361	1	False	True	False	False	0.0
video_on	action	8	meg	2	vbCo8OXHRE8	Putting in contact lenses	Grooming	Personal Care	Grooming	Washing, dressing and grooming oneself	351	4	True	False	False	True	0.284547522342109
video_on	action	8	meg	2	_bI6p00uol4	Canoeing	Participating_in_sports&Exercise&Recreation	Sports, Exercise, and Recreation	Participating in Sports, Exercise, or Recreation	Boating	292	1	True	True	True	True	0.3885911966199273
video_on	action	8	meg	2	4EaPmLts8o4	Doing fencing	Participating_in_sports&Exercise&Recreation	Sports, Exercise, and Recreation	Participating in Sports, Exercise, or Recreation	Fencing	309	1	True	True	False	False	0.3981127205706798
video_on	action	8	meg	2	0vsV8hJPtBs	Snow tubing	Participating_in_sports&Exercise&Recreation	Sports, Exercise, and Recreation	Participating in Sports, Exercise, or Recreation	Skiing, ice skating, snowboarding	372	1	False	True	False	False	0.0
video_on	action	8	meg	2	TPVYjQtYV1Q	Mowing the lawn	Lawn&Garden&Houseplants	Household Activities	Lawn, Garden, and Houseplants	Lawn, garden, and houseplant care	218	9	False	False	False	True	0.0
video_on	action	8	meg	2	SCLMyCB9RJ4	Blow-drying hair	Grooming	Personal Care	Grooming	Washing, dressing and grooming oneself	281	4	True	False	False	True	0.6386593433462622
video_on	action	8	meg	2	m-7smRDjzKE	Sumo	Participating_in_sports&Exercise&Recreation	Sports, Exercise, and Recreation	Participating in Sports, Exercise, or Recreation	Wrestling	375	1	True	True	False	False	0.5745522163915666
video_on	action	8	meg	2	juK0THTPkog	Having an ice cream	Food&Drink_prep.&Presentation&Clean-up	Eating and drinking Activities	Food & Drink Prep., Presentation, & Clean-up	Eating and Drinking	320	5	True	False	False	True	0.5267018946751705
video_on	action	8	meg	2	B1mDs6sWhLU	Building sandcastles	Arts&Entertainment	Socializing, Relaxing, and Leisure	Arts and Entertainment	Beach activities	286	2	False	False	False	True	0.0
video_on	action	8	meg	2	6AFlCdk5ygk	Starting a campfire	Participating_in_sports&Exercise&Recreation	Sports, Exercise, and Recreation	Participating in Sports, Exercise, or Recreation	Playing sports	153	1	True	True	False	False	0.4866135076917999
video_on	action	8	meg	2	GSFdW8Ok-Vo	Cricket	Participating_in_sports&Exercise&Recreation	Sports, Exercise, and Recreation	Participating in Sports, Exercise, or Recreation	Playing sports	82	1	True	True	True	True	0.0053892513824393
video_on	action	8	meg	2	qwXlsPOT5eg	BMX	Participating_in_sports&Exercise&Recreation	Sports, Exercise, and Recreation	Participating in Sports, Exercise, or Recreation	Biking	274	1	False	True	False	False	0.0
video_on	action	8	eeg	2	XmPOLlqA-tk	Welding	Appliances&Tools&Toys	Household Activities	Appliances, Tools, and Toys	Appliance, tool, and toy set-up, repair, & maintenance (by self)	388	10	True	False	False	True	0.633910000033211
video_on	action	8	eeg	2	V5Qu02rpVz4	Surfing	Participating_in_sports&Exercise&Recreation	Sports, Exercise, and Recreation	Participating in Sports, Exercise, or Recreation	Participating in water sports	376	1	True	True	True	True	0.778420599992387
video_on	action	8	eeg	2	-okFRgLetB0	Rock-paper-scissors	Relaxing&Leisure	Socializing, Relaxing, and Leisure	Relaxing and Leisure	Playing games	358	3	True	False	False	True	0.7634574000257999
video_on	action	8	eeg	2	4UIy6TnqVLo	Brushing teeth	Grooming	Personal Care	Grooming	Washing, dressing and grooming oneself	148	4	True	False	False	True	0.6391699999803677
video_on	action	8	eeg	2	0ZQoJ2psHIs	Wrapping presents	Household_management	Household Activities	Household Management	Household & personal organization and planning	179	13	True	False	False	True	0.5852728000027128
video_on	action	8	eeg	2	iIIEhH7xOXg	Playing guitarra	Arts&Entertainment	Socializing, Relaxing, and Leisure	Arts and Entertainment	Playing musical instruments	251	2	True	False	False	True	0.556166399968788
video_on	action	8	eeg	2	MHU6QLVhfwM	Snatch	Participating_in_sports&Exercise&Recreation	Sports, Exercise, and Recreation	Participating in Sports, Exercise, or Recreation	Weightlifting	79	1	True	True	True	True	0.7358624000335112
video_on	action	8	eeg	2	qNt6pInA4fs	Drum corps	Arts&Entertainment	Socializing, Relaxing, and Leisure	Arts and Entertainment	Playing musical instruments	307	2	True	False	False	True	0.5664853000198491
video_on	action	8	eeg	2	dn4G7a-Gv_o	Bathing dog	Animals&Pets	Household Activities	Animals and Pets	Care for animals and pets (not veterinary care)	90	8	True	False	False	True	0.5193006999907084
video_on	action	8	eeg	2	3Ld2xN8R26Y	Painting	Interior_maintenance&Repair&Decoration	Household Activities	Interior Maintenance, Repair, & Decoration	Interior arrangement, decoration, & repairs	217	7	True	False	False	True	0.7102999000344425
video_on	action	8	eeg	2	pS7Dw5Zm8TM	Painting fence	Exterior_maintenance&Repair&Decoration	Household Activities	Exterior Maintenance, Repair, & Decoration	Painting fence	336	12	True	False	False	True	0.5112433999893256
video_on	action	8	eeg	2	Rdi29ummdOc	Springboard diving	Participating_in_sports&Exercise&Recreation	Sports, Exercise, and Recreation	Participating in Sports, Exercise, or Recreation	Participating in water sports	193	1	True	True	True	True	0.6398810000391677
video_on	action	8	eeg	2	OMlTV-IURIE	Knitting	Housework	Household Activities	Housework	Sewing, repairing, & maintaining textiles	329	6	True	False	False	True	0.577055300003849
video_on	action	8	eeg	2	Uk2-SnWxI8U	Playing blackjack	Arts&Entertainment	Socializing, Relaxing, and Leisure	Arts and Entertainment	Attending gambling establishments	343	2	True	False	False	True	0.4648453000118024
video_on	action	8	eeg	2	FtLErnUbGVA	Plataform diving	Participating_in_sports&Exercise&Recreation	Sports, Exercise, and Recreation	Participating in Sports, Exercise, or Recreation	Participating in water sports	233	1	True	True	True	True	0.5868344000191428
video_on	action	8	eeg	2	A08oIP7iXGo	Playing saxophone	Arts&Entertainment	Socializing, Relaxing, and Leisure	Arts and Entertainment	Playing musical instruments	109	2	True	False	False	True	0.6454995999811217
video_on	action	8	eeg	2	RUtCi02OFVw	Grooming dog	Animals&Pets	Household Activities	Animals and Pets	Care for animals and pets (not veterinary care)	317	8	True	False	False	True	0.8970846999436617
video_on	action	8	eeg	2	I5XPn8DwsrY	Playing violin	Arts&Entertainment	Socializing, Relaxing, and Leisure	Arts and Entertainment	Playing musical instruments	234	2	True	False	False	True	0.6745466999709606
video_on	action	8	eeg	2	6l5tDosci5A	Tumbling	Participating_in_sports&Exercise&Recreation	Sports, Exercise, and Recreation	Participating in Sports, Exercise, or Recreation	Doing gymnastics	258	1	True	True	True	True	0.5211958999861963
video_on	action	8	eeg	2	MAlSi7rStyI	Slacklining	Relaxing&Leisure	Socializing, Relaxing, and Leisure	Relaxing and Leisure	Playing games	371	3	True	False	True	False	0.6094995000166818
video_on	action	8	eeg	2	vs8us2xhfCA	Doing karate	Participating_in_sports&Exercise&Recreation	Sports, Exercise, and Recreation	Participating in Sports, Exercise, or Recreation	Participating in martial arts	99	1	True	True	True	True	0.6789756999933161
video_on	action	8	eeg	2	sbcVIobQ6Y4	Running a marathon	Participating_in_sports&Exercise&Recreation	Sports, Exercise, and Recreation	Participating in Sports, Exercise, or Recreation	Running	362	1	True	True	True	True	0.5755143000278622
video_on	action	8	eeg	2	F0aS2w9VKNs	Waterskiing	Participating_in_sports&Exercise&Recreation	Sports, Exercise, and Recreation	Participating in Sports, Exercise, or Recreation	Participating in water sports	386	1	True	True	True	True	0.7143048000289127
video_on	action	8	eeg	2	sMdxEhg4-J0	Decorating the Christmas tree	Interior_maintenance&Repair&Decoration	Household Activities	Interior Maintenance, Repair, & Decoration	Interior arrangement, decoration, & repairs	302	7	True	False	False	True	0.5458700000308454
video_on	action	8	eeg	2	RfPwVU0AW54	Making an omelette	Food&Drink_prep.&Presentation&Clean-up	Eating and drinking Activities	Food & Drink Prep., Presentation, & Clean-up	Food and drink preparation	334	5	True	False	False	True	0.608365899999626
video_on	action	8	eeg	2	oTGHgCNp02Y	Playing lacrosse	Participating_in_sports&Exercise&Recreation	Sports, Exercise, and Recreation	Participating in Sports, Exercise, or Recreation	Playing racquet sports	209	1	True	True	True	True	0.5785191999748349
video_on	action	8	eeg	2	tbEHpakKLRo	Doing kickboxing	Participating_in_sports&Exercise&Recreation	Sports, Exercise, and Recreation	Participating in Sports, Exercise, or Recreation	Participating in martial arts	70	1	True	True	True	True	0.5992083000019193
video_on	action	8	eeg	2	E9GQ7kQvCSg	Hurling	Participating_in_sports&Exercise&Recreation	Sports, Exercise, and Recreation	Participating in Sports, Exercise, or Recreation	Playing sports	323	1	True	True	True	True	0.5464710000087507
video_on	action	8	eeg	2	xsyxswlq-vs	Smoking a cigarette	Relaxing&Leisure	Socializing, Relaxing, and Leisure	Relaxing and Leisure	Tobacco and drug use	201	3	True	False	False	True	0.5460021999897435
video_on	action	8	eeg	2	j5cmc3cnLeU	Tango	Arts&Entertainment	Socializing, Relaxing, and Leisure	Arts and Entertainment	Dancing	73	2	True	False	True	False	0.60494499997003
video_on	action	8	eeg	2	xePJHn8VxnQ	Bungee jumping	Participating_in_sports&Exercise&Recreation	Sports, Exercise, and Recreation	Participating in Sports, Exercise, or Recreation	Playing sports	154	1	True	True	True	True	0.5949630999821238
video_on	action	8	eeg	2	ItdiW9lPrXs	Clean and jerk	Participating_in_sports&Exercise&Recreation	Sports, Exercise, and Recreation	Participating in Sports, Exercise, or Recreation	Weightlifting	84	1	True	True	True	True	0.6286745999823324
video_on	action	8	eeg	2	YCHmXwLhs3A	Assembling bicycle	Vehicles	Household Activities	Vehicles	Vehicle repair and maintenance (by self)	273	11	True	False	False	True	0.6332356000202708
video_on	action	8	eeg	2	adQvfYMW2d0	Rope skipping	Participating_in_sports&Exercise&Recreation	Sports, Exercise, and Recreation	Participating in Sports, Exercise, or Recreation	Working out	361	1	True	True	True	True	0.5026055999915116
video_on	action	8	eeg	2	xxa5E0rm0SI	Futsal	Participating_in_sports&Exercise&Recreation	Sports, Exercise, and Recreation	Participating in Sports, Exercise, or Recreation	Playing soccer	315	1	True	True	True	True	0.8332017000066116
video_on	action	8	eeg	2	7_DkmUDGS6Q	Playing harmonica	Arts&Entertainment	Socializing, Relaxing, and Leisure	Arts and Entertainment	Playing musical instruments	100	2	True	False	False	True	0.5553116999799386
video_on	action	8	eeg	2	bVvHaMUtu_Y	Doing motocross	Participating_in_sports&Exercise&Recreation	Sports, Exercise, and Recreation	Participating in Sports, Exercise, or Recreation	Playing sports	243	1	True	True	True	True	0.5262758000171743
video_on	action	8	eeg	2	2mEIokp5iTw	Cleaning sink	Interior_maintenance&Repair&Decoration	Household Activities	Interior Maintenance, Repair, & Decoration	Interior arrangement, decoration, & repairs	297	7	True	False	False	True	0.6732343999901786
video_on	action	8	eeg	2	T5Lckcr2Qqg	Drinking coffee	Food&Drink_prep.&Presentation&Clean-up	Eating and drinking Activities	Food & Drink Prep., Presentation, & Clean-up	Eating and Drinking	68	5	True	False	False	True	0.6274883999722078
video_on	action	8	eeg	2	kkXekzzbiQE	Making a lemonade	Food&Drink_prep.&Presentation&Clean-up	Eating and drinking Activities	Food & Drink Prep., Presentation, & Clean-up	Food and drink preparation	333	5	True	False	False	True	0.7276508999639191
video_on	action	8	eeg	2	RLhi6PsGzLs	Baking cookies	Food&Drink_prep.&Presentation&Clean-up	Eating and drinking Activities	Food & Drink Prep., Presentation, & Clean-up	Food and drink preparation	276	5	True	False	False	True	0.5052877999842167
video_on	action	8	eeg	2	ZYFUyZBFNcI	Disc dog	Animals&Pets	Household Activities	Animals and Pets	Walking / exercising / playing with animals	303	8	True	False	False	True	0.6088752000359818
video_on	action	8	eeg	2	xEDAh_Jnzf0	Doing crunches	Participating_in_sports&Exercise&Recreation	Sports, Exercise, and Recreation	Participating in Sports, Exercise, or Recreation	Working out	305	1	True	True	False	False	0.6174565000110306
video_on	action	8	eeg	2	rGqoEI_Y2yM	Ironing clothes	Housework	Household Activities	Housework	Laundry	83	6	True	False	False	True	0.5237804999924265
video_on	action	8	eeg	2	GY9ExoIv0e8	Swinging at the playground	Arts&Entertainment	Socializing, Relaxing, and Leisure	Arts and Entertainment	Park activities	378	2	True	False	False	True	0.6074786999961361
video_on	action	8	eeg	2	wGlYm9h9I_Y	Zumba	Participating_in_sports&Exercise&Recreation	Sports, Exercise, and Recreation	Participating in Sports, Exercise, or Recreation	Doing aerobics	69	1	True	True	False	False	0.5687349999789149
video_on	action	8	eeg	2	YOW-7QTcJAc	Getting a tattoo	Grooming	Personal Care	Grooming	Washing, dressing and grooming	187	4	True	False	False	True	0.6613509999588132
video_on	action	8	eeg	2	c0fJNUMg2kY	Windsurfing	Participating_in_sports&Exercise&Recreation	Sports, Exercise, and Recreation	Participating in Sports, Exercise, or Recreation	Participating in water sports	237	1	True	True	True	True	0.6449349999893457
video_on	action	8	eeg	2	9d0J08TK4BU	Using the rowing machine	Participating_in_sports&Exercise&Recreation	Sports, Exercise, and Recreation	Participating in Sports, Exercise, or Recreation	Using cardiovascular equipment	384	1	True	True	True	True	0.7064339999924414
video_on	action	8	eeg	2	3Z_EqJGsUi0	Playing polo	Participating_in_sports&Exercise&Recreation	Sports, Exercise, and Recreation	Participating in Sports, Exercise, or Recreation	Participating in equestrian sports	75	1	True	True	True	True	0.688546099991072
video_on	action	8	eeg	2	Ro4tN2ECDgo	Shaving	Grooming	Personal Care	Grooming	Washing, dressing and grooming oneself	190	4	True	False	False	True	0.6617074999958277
video_on	action	8	eeg	2	QF1Y0lxvM-A	Camel ride	Participating_in_sports&Exercise&Recreation	Sports, Exercise, and Recreation	Participating in Sports, Exercise, or Recreation	Playing sports	291	1	True	True	False	False	0.7544924999820068
video_on	action	8	eeg	2	h7bXuVr2LyA	Playing badminton	Participating_in_sports&Exercise&Recreation	Sports, Exercise, and Recreation	Participating in Sports, Exercise, or Recreation	Playing racquet sports	268	1	True	True	True	True	0.7795752999954857
video_on	action	8	eeg	2	yvM0Y_H3Svk	Playing beach volleyball	Participating_in_sports&Exercise&Recreation	Sports, Exercise, and Recreation	Participating in Sports, Exercise, or Recreation	Playing volleyball	341	1	True	True	True	True	0.7045050000306219
video_on	action	8	eeg	2	hjgIp3spenc	Rock climbing	Participating_in_sports&Exercise&Recreation	Sports, Exercise, and Recreation	Participating in Sports, Exercise, or Recreation	Climbing, spelunking, caving	188	1	True	True	True	True	0.7291817999794148
video_on	action	8	eeg	2	yeI0ufL1C-w	Building sandcastles	Arts&Entertainment	Socializing, Relaxing, and Leisure	Arts and Entertainment	Beach activities	286	2	True	False	False	True	0.6122965000104159
video_on	action	8	eeg	2	fTUA-yCujkc	Making a cake	Food&Drink_prep.&Presentation&Clean-up	Eating and drinking Activities	Food & Drink Prep., Presentation, & Clean-up	Food and drink preparation	332	5	True	False	False	True	0.7585041000274941
video_on	action	8	eeg	2	cTOhzcSYMlM	Putting on shoes	Grooming	Personal Care	Grooming	Washing, dressing and grooming oneself	352	4	True	False	False	True	0.5070243999944068
video_on	action	8	eeg	2	xaiJEou113M	Capoeira	Participating_in_sports&Exercise&Recreation	Sports, Exercise, and Recreation	Participating in Sports, Exercise, or Recreation	Participating in martial arts	294	1	True	True	True	True	0.7552546999650076
video_on	action	8	eeg	2	8l72aruR1ZI	High jump	Participating_in_sports&Exercise&Recreation	Sports, Exercise, and Recreation	Participating in Sports, Exercise, or Recreation	Playing sports	195	1	True	True	True	True	0.5447881000000052
video_on	action	8	eeg	2	PA1ceDCcloI	Hanging wallpaper	Interior_maintenance&Repair&Decoration	Household Activities	Interior Maintenance, Repair, & Decoration	Interior arrangement, decoration, & repairs	319	7	True	False	False	True	0.6038200000184588
video_on	action	8	eeg	2	UmH5Uoreuh8	Archery	Participating_in_sports&Exercise&Recreation	Sports, Exercise, and Recreation	Participating in Sports, Exercise, or Recreation	Playing sports	250	1	True	True	True	True	0.692264300014358
video_on	action	8	eeg	2	Ds1i-wDDj1Y	Painting furniture	Interior_maintenance&Repair&Decoration	Household Activities	Interior Maintenance, Repair, & Decoration	Building and repairing furniture	337	7	True	False	False	True	0.6095382000203244
video_on	action	8	eeg	2	GgZe0JJK6-U	Getting a piercing	Grooming	Personal Care	Grooming	Washing, dressing and grooming	214	4	True	False	False	True	0.6681037000380456
video_on	action	8	eeg	2	EQxrNdhMW6k	Beach soccer	Participating_in_sports&Exercise&Recreation	Sports, Exercise, and Recreation	Participating in Sports, Exercise, or Recreation	Playing soccer	278	1	True	True	True	True	0.5730306999757886
video_on	action	8	eeg	2	OJnPO4xK7TY	Cheerleading	Arts&Entertainment	Socializing, Relaxing, and Leisure	Arts and Entertainment	Dancing	140	2	True	False	True	False	0.6492733000195585
video_on	action	8	eeg	2	KmmZULPUEkQ	Mixing drinks	Food&Drink_prep.&Presentation&Clean-up	Eating and drinking Activities	Food & Drink Prep., Presentation, & Clean-up	Food and drink preparation	244	5	True	False	False	True	0.8818862999905832
video_on	action	8	eeg	2	66szHJG2fPI	Braiding hair	Grooming	Personal Care	Grooming	Washing, dressing and grooming oneself	285	4	True	False	False	True	0.5035619999980554
video_on	action	8	eeg	2	M562MzDNQik	Elliptical trainer	Participating_in_sports&Exercise&Recreation	Sports, Exercise, and Recreation	Participating in Sports, Exercise, or Recreation	Using cardiovascular equipment	308	1	True	True	True	True	0.5592515000025742
video_on	action	8	eeg	2	bJsshtTstZg	Playing racquetball	Participating_in_sports&Exercise&Recreation	Sports, Exercise, and Recreation	Participating in Sports, Exercise, or Recreation	Playing racquet sports	253	1	True	True	True	True	0.6989176999777555
video_on	action	8	eeg	2	_K8nmtsC5hk	Playing accordion	Arts&Entertainment	Socializing, Relaxing, and Leisure	Arts and Entertainment	Playing musical instruments	267	2	True	False	False	True	0.4637108000461012
video_on	action	8	eeg	2	pvEsK5Gxoeg	Riding bumper cars	Relaxing&Leisure	Socializing, Relaxing, and Leisure	Relaxing and Leisure	Playing games	356	3	True	False	False	True	0.7308665000018664
video_on	action	8	eeg	2	k6eA2IlMBpU	Hand washing clothes	Housework	Household Activities	Housework	Laundry	232	6	False	False	False	True	0.0
video_on	action	8	eeg	2	G-NLfwx6dIY	Horseback riding	Participating_in_sports&Exercise&Recreation	Sports, Exercise, and Recreation	Participating in Sports, Exercise, or Recreation	Participating in equestrian sports	175	1	True	True	False	False	0.0051915999501943
video_on	action	8	eeg	2	5Dmmaemw4jo	Spread mulch	Lawn&Garden&Houseplants	Household Activities	Lawn, Garden, and Houseplants	Lawn, garden, and houseplant care	374	9	True	False	False	True	0.6366812000051141
video_on	action	8	eeg	2	UzFcm6E0tuo	Hammer throw	Participating_in_sports&Exercise&Recreation	Sports, Exercise, and Recreation	Participating in Sports, Exercise, or Recreation	Playing sports	224	1	True	True	True	True	0.5261633000336587
video_on	action	8	eeg	2	0nz4qPcU4us	Rollerblading	Participating_in_sports&Exercise&Recreation	Sports, Exercise, and Recreation	Participating in Sports, Exercise, or Recreation	Playing sports	359	1	True	True	True	True	0.624276100017596
video_on	action	8	eeg	2	XqcaS-zHWTg	Plastering	Interior_maintenance&Repair&Decoration	Household Activities	Interior Maintenance, Repair, & Decoration	Interior arrangement, decoration, & repairs	340	7	True	False	False	True	0.6173978999722749
video_on	action	8	eeg	2	x0_GaicwdAQ	Using the monkey bar	Arts&Entertainment	Socializing, Relaxing, and Leisure	Arts and Entertainment	Park activities	383	2	True	False	False	True	0.7086183999781497
video_on	action	8	eeg	2	xS4Qaj4HcUQ	Skateboarding	Participating_in_sports&Exercise&Recreation	Sports, Exercise, and Recreation	Participating in Sports, Exercise, or Recreation	Playing sports	176	1	True	True	True	True	0.7853804000187665
video_on	action	8	eeg	2	yw2Sq3-uxUE	Playing piano	Arts&Entertainment	Socializing, Relaxing, and Leisure	Arts and Entertainment	Playing musical instruments	197	2	True	False	False	True	0.5250534000224434
video_on	action	8	eeg	2	lr7KoQK3Kq8	Baton twirling	Participating_in_sports&Exercise&Recreation	Sports, Exercise, and Recreation	Participating in Sports, Exercise, or Recreation	Playing sports	277	1	True	True	True	True	0.7899865999934264
video_on	action	8	eeg	2	9mSs4IaJTl4	Skiing	Participating_in_sports&Exercise&Recreation	Sports, Exercise, and Recreation	Participating in Sports, Exercise, or Recreation	Skiing, ice skating, snowboarding	369	1	True	True	True	True	0.5813956000492908
video_on	action	8	eeg	2	Bz6JF3qx7hU	Longboarding	Participating_in_sports&Exercise&Recreation	Sports, Exercise, and Recreation	Participating in Sports, Exercise, or Recreation	Playing sports	331	1	True	True	True	True	0.6357498000143096
video_on	action	8	eeg	2	MxLvh0rzXwk	Powerbocking	Participating_in_sports&Exercise&Recreation	Sports, Exercise, and Recreation	Participating in Sports, Exercise, or Recreation	Playing sports	350	1	True	True	False	False	0.5434392000315711
video_on	action	8	eeg	2	C5NHt3veRR8	Doing nails	Grooming	Personal Care	Grooming	Washing, dressing and grooming oneself	167	4	True	False	False	True	0.6584600000060163
video_on	action	8	eeg	2	vGO2jI968UY	Playing rubik cube	Relaxing&Leisure	Socializing, Relaxing, and Leisure	Relaxing and Leisure	Playing games	349	3	True	False	False	True	0.5819838999886997
video_on	action	8	eeg	2	e-sR7cQlV-A	Using parallel bars	Participating_in_sports&Exercise&Recreation	Sports, Exercise, and Recreation	Participating in Sports, Exercise, or Recreation	Doing gymnastics	88	1	True	True	True	True	0.7340735000325367
video_on	action	8	eeg	2	Y8dMELUE8Ao	Snowboarding	Participating_in_sports&Exercise&Recreation	Sports, Exercise, and Recreation	Participating in Sports, Exercise, or Recreation	Skiing, ice skating, snowboarding	373	1	True	True	True	True	0.7144124999758787
video_on	action	8	eeg	2	Gg1JwkSq_WI	Tai chi	Participating_in_sports&Exercise&Recreation	Sports, Exercise, and Recreation	Participating in Sports, Exercise, or Recreation	Participating in martial arts	263	1	False	True	False	False	0.0
video_on	action	8	meg	3	Icx2v6Q_7rI	Cricket	Participating_in_sports&Exercise&Recreation	Sports, Exercise, and Recreation	Participating in Sports, Exercise, or Recreation	Playing sports	82	1	True	True	True	True	0.4583607655977175
video_on	action	8	meg	3	SqVXxL0wBDs	Doing fencing	Participating_in_sports&Exercise&Recreation	Sports, Exercise, and Recreation	Participating in Sports, Exercise, or Recreation	Fencing	309	1	True	True	True	True	0.3131694491357848
video_on	action	8	meg	3	frDq01nVpGY	Long jump	Participating_in_sports&Exercise&Recreation	Sports, Exercise, and Recreation	Participating in Sports, Exercise, or Recreation	Playing sports	80	1	True	True	True	True	0.3212791359328548
video_on	action	8	meg	3	GkSiRn2h-b4	Wakeboarding	Participating_in_sports&Exercise&Recreation	Sports, Exercise, and Recreation	Participating in Sports, Exercise, or Recreation	Participating in water sports	385	1	True	True	True	True	0.163703982093466
video_on	action	8	meg	3	Vf8dNgx70Pw	Playing badminton	Participating_in_sports&Exercise&Recreation	Sports, Exercise, and Recreation	Participating in Sports, Exercise, or Recreation	Playing racquet sports	268	1	True	True	True	True	0.2816206091392814
video_on	action	8	meg	3	9kNSlxENI2k	Cleaning windows	Housework	Household Activities	Housework	Interior cleaning	143	6	True	False	False	True	0.3618167026643277
video_on	action	8	meg	3	I8wSPaiFgII	Playing ice hockey	Participating_in_sports&Exercise&Recreation	Sports, Exercise, and Recreation	Participating in Sports, Exercise, or Recreation	Playing hockey	347	1	True	True	True	True	0.3140186041309789
video_on	action	8	meg	3	dlKrJMoPdqo	Kite flying	Relaxing&Leisure	Socializing, Relaxing, and Leisure	Relaxing and Leisure	Playing games	327	3	True	False	False	True	0.5781296553723223
video_on	action	8	meg	3	bDcTGJyxbtY	Rock climbing	Participating_in_sports&Exercise&Recreation	Sports, Exercise, and Recreation	Participating in Sports, Exercise, or Recreation	Climbing, spelunking, caving	188	1	True	True	False	False	0.3302388833290024
video_on	action	8	meg	3	_Y8cKWxe-ww	Assembling bicycle	Vehicles	Household Activities	Vehicles	Vehicle repair and maintenance (by self)	273	11	True	False	False	True	0.0907898530049351
video_on	action	8	meg	3	xARDTXunQJk	Disc dog	Animals&Pets	Household Activities	Animals and Pets	Walking / exercising / playing with animals	303	8	True	False	False	True	0.5627150621621695
video_on	action	8	meg	3	wpRWyQ7byoA	Preparing salad	Food&Drink_prep.&Presentation&Clean-up	Eating and drinking Activities	Food & Drink Prep., Presentation, & Clean-up	Food and drink preparation	96	5	True	False	False	True	0.3927817297344518
video_on	action	8	meg	3	XtxJ0SO1jmU	Surfing	Participating_in_sports&Exercise&Recreation	Sports, Exercise, and Recreation	Participating in Sports, Exercise, or Recreation	Participating in water sports	376	1	True	True	False	False	0.5142271949962378
video_on	action	8	meg	3	3iErgyrJ4ck	Elliptical trainer	Participating_in_sports&Exercise&Recreation	Sports, Exercise, and Recreation	Participating in Sports, Exercise, or Recreation	Using cardiovascular equipment	308	1	True	True	True	True	0.4017635135032833
video_on	action	8	meg	3	a1ZStV1lkZw	Rollerblading	Participating_in_sports&Exercise&Recreation	Sports, Exercise, and Recreation	Participating in Sports, Exercise, or Recreation	Playing sports	359	1	True	True	True	True	0.5013585574333774
video_on	action	8	meg	3	JWNK6ReGGto	Playing bagpipes	Arts&Entertainment	Socializing, Relaxing, and Leisure	Arts and Entertainment	Playing musical instruments	136	2	True	False	False	True	0.4513978757540826
video_on	action	8	meg	3	HroJ-1vzTPE	Belly dance	Arts&Entertainment	Socializing, Relaxing, and Leisure	Arts and Entertainment	Dancing	247	2	True	False	True	False	0.308750099993631
video_on	action	8	meg	3	IJwXDQujBQs	Bungee jumping	Participating_in_sports&Exercise&Recreation	Sports, Exercise, and Recreation	Participating in Sports, Exercise, or Recreation	Playing sports	154	1	True	True	False	False	0.3555583729912541
video_on	action	8	meg	3	wtEtabvCwB0	Tumbling	Participating_in_sports&Exercise&Recreation	Sports, Exercise, and Recreation	Participating in Sports, Exercise, or Recreation	Doing gymnastics	258	1	True	True	True	True	0.3240122498082201
video_on	action	8	meg	3	lm1R156bMJs	Riding bumper cars	Relaxing&Leisure	Socializing, Relaxing, and Leisure	Relaxing and Leisure	Playing games	356	3	True	False	False	True	0.3471274985249692
video_on	action	8	meg	3	0c3sivWZg9Y	Using the rowing machine	Participating_in_sports&Exercise&Recreation	Sports, Exercise, and Recreation	Participating in Sports, Exercise, or Recreation	Using cardiovascular equipment	384	1	True	True	True	True	0.7462206867194254
video_on	action	8	meg	3	eRV2vqUP7sI	Snow tubing	Participating_in_sports&Exercise&Recreation	Sports, Exercise, and Recreation	Participating in Sports, Exercise, or Recreation	Skiing, ice skating, snowboarding	372	1	True	True	True	True	0.3304037033176428
video_on	action	8	meg	3	1m99fabCe1Q	Shot put	Participating_in_sports&Exercise&Recreation	Sports, Exercise, and Recreation	Participating in Sports, Exercise, or Recreation	Playing sports	169	1	True	True	True	True	0.3099467051843021
video_on	action	8	meg	3	f18vtPQZXds	Camel ride	Participating_in_sports&Exercise&Recreation	Sports, Exercise, and Recreation	Participating in Sports, Exercise, or Recreation	Playing sports	291	1	True	True	True	True	0.534095248444828
video_on	action	8	meg	3	CtPci8ZMMMs	BMX	Participating_in_sports&Exercise&Recreation	Sports, Exercise, and Recreation	Participating in Sports, Exercise, or Recreation	Biking	274	1	True	True	True	True	0.3341655837148209
video_on	action	8	meg	3	qjMrQ-zg-k0	Skiing	Participating_in_sports&Exercise&Recreation	Sports, Exercise, and Recreation	Participating in Sports, Exercise, or Recreation	Skiing, ice skating, snowboarding	369	1	True	True	True	True	0.534244673160174
video_on	action	8	meg	3	5bfs0ZJJvTg	Cleaning shoes	Housework	Household Activities	Housework	Sewing, repairing, & maintaining textiles	134	6	True	False	False	True	0.4052045080989046
video_on	action	8	meg	3	wYbve3BdR3g	Rope skipping	Participating_in_sports&Exercise&Recreation	Sports, Exercise, and Recreation	Participating in Sports, Exercise, or Recreation	Working out	361	1	True	True	True	True	0.5326523188750798
video_on	action	8	meg	3	ajX_uYAchD0	Hanging wallpaper	Interior_maintenance&Repair&Decoration	Household Activities	Interior Maintenance, Repair, & Decoration	Interior arrangement, decoration, & repairs	319	7	True	False	False	True	0.5567054718121653
video_on	action	8	meg	3	cuW92OsJW7k	Playing harmonica	Arts&Entertainment	Socializing, Relaxing, and Leisure	Arts and Entertainment	Playing musical instruments	100	2	True	False	True	False	0.7497172250477888
video_on	action	8	meg	3	pk6idgnxOMA	Volleyball	Participating_in_sports&Exercise&Recreation	Sports, Exercise, and Recreation	Participating in Sports, Exercise, or Recreation	Playing volleyball	123	1	True	True	True	True	0.7010841593200894
video_on	action	8	meg	3	5CuF0HArVEc	Smoking a cigarette	Relaxing&Leisure	Socializing, Relaxing, and Leisure	Relaxing and Leisure	Tobacco and drug use	201	3	False	False	False	True	0.0
video_on	action	8	meg	3	xTgH0K3MoiE	Doing motocross	Participating_in_sports&Exercise&Recreation	Sports, Exercise, and Recreation	Participating in Sports, Exercise, or Recreation	Playing sports	243	1	False	True	False	False	0.0
video_on	action	8	meg	3	pcHscZTKsRA	Capoeira	Participating_in_sports&Exercise&Recreation	Sports, Exercise, and Recreation	Participating in Sports, Exercise, or Recreation	Participating in martial arts	294	1	True	True	True	True	0.316952762168512
video_on	action	8	meg	3	uhhnEWT5F_c	Powerbocking	Participating_in_sports&Exercise&Recreation	Sports, Exercise, and Recreation	Participating in Sports, Exercise, or Recreation	Playing sports	350	1	True	True	True	True	0.3118514929637968
video_on	action	8	meg	3	ZRYKhrW5O-w	Sharpening knives	Appliances&Tools&Toys	Household Activities	Appliances, Tools, and Toys	Appliance, tool, and toy set-up, repair, & maintenance (by self)	365	10	True	False	False	True	0.3898653819160245
video_on	action	8	meg	3	Yka3za76YIA	Plastering	Interior_maintenance&Repair&Decoration	Household Activities	Interior Maintenance, Repair, & Decoration	Interior arrangement, decoration, & repairs	340	7	True	False	False	True	0.0541152924879497
video_on	action	8	meg	3	oP77DgsbhKQ	Laying tile	Interior_maintenance&Repair&Decoration	Household Activities	Interior Maintenance, Repair, & Decoration	Interior arrangement, decoration, & repairs	330	7	True	False	True	False	0.8081824370110553
video_on	action	8	meg	3	cD9nNGx8kn4	Playing drums	Arts&Entertainment	Socializing, Relaxing, and Leisure	Arts and Entertainment	Playing musical instruments	346	2	False	False	False	True	0.0
video_on	action	8	meg	3	oD1M5JQc-8Y	Hitting a pinata	Relaxing&Leisure	Socializing, Relaxing, and Leisure	Relaxing and Leisure	Playing games	321	3	True	False	False	True	0.3185369660141077
video_on	action	8	meg	3	YTlid4F5d4k	Beer pong	Relaxing&Leisure	Socializing, Relaxing, and Leisure	Relaxing and Leisure	Playing games	280	3	True	False	False	True	0.5105857599755836
video_on	action	8	meg	3	bx_fYQ294DU	Doing kickboxing	Participating_in_sports&Exercise&Recreation	Sports, Exercise, and Recreation	Participating in Sports, Exercise, or Recreation	Participating in martial arts	70	1	True	True	True	True	0.2388314081690623
video_on	action	8	meg	3	LIi6pQ4WQgQ	Sumo	Participating_in_sports&Exercise&Recreation	Sports, Exercise, and Recreation	Participating in Sports, Exercise, or Recreation	Wrestling	375	1	False	True	False	False	0.0
video_on	action	8	meg	3	RZ9M2ts7PY4	Futsal	Participating_in_sports&Exercise&Recreation	Sports, Exercise, and Recreation	Participating in Sports, Exercise, or Recreation	Playing soccer	315	1	True	True	True	True	0.3371305322998523
video_on	action	8	meg	3	BmVm04nPZZ8	Putting in contact lenses	Grooming	Personal Care	Grooming	Washing, dressing and grooming oneself	351	4	True	False	False	True	0.425396164162521
video_on	action	8	meg	3	b7GNFyxrkdU	Baton twirling	Participating_in_sports&Exercise&Recreation	Sports, Exercise, and Recreation	Participating in Sports, Exercise, or Recreation	Playing sports	277	1	False	True	False	False	0.0
video_on	action	8	meg	3	MrAddl14BB0	Hopscotch	Relaxing&Leisure	Socializing, Relaxing, and Leisure	Relaxing and Leisure	Playing games	241	3	False	False	False	True	0.0
video_on	action	8	meg	3	EcVkv5BFvTQ	Having an ice cream	Food&Drink_prep.&Presentation&Clean-up	Eating and drinking Activities	Food & Drink Prep., Presentation, & Clean-up	Eating and Drinking	320	5	True	False	False	True	0.3199379359166414
video_on	action	8	meg	3	G0941H-0fwU	Playing saxophone	Arts&Entertainment	Socializing, Relaxing, and Leisure	Arts and Entertainment	Playing musical instruments	109	2	False	False	False	True	0.0
video_on	action	8	meg	3	a7oWrK1akks	Tai chi	Participating_in_sports&Exercise&Recreation	Sports, Exercise, and Recreation	Participating in Sports, Exercise, or Recreation	Participating in martial arts	263	1	False	True	False	False	0.0
video_on	action	8	meg	3	SX7NtpN-I5M	Kneeling	Participating_in_sports&Exercise&Recreation	Sports, Exercise, and Recreation	Participating in Sports, Exercise, or Recreation	Working out	328	1	True	True	False	False	0.5282764387411589
video_on	action	8	meg	3	P2MtyFoJyxM	Triple jump	Participating_in_sports&Exercise&Recreation	Sports, Exercise, and Recreation	Participating in Sports, Exercise, or Recreation	Playing sports	155	1	True	True	True	True	0.4322530982981334
video_on	action	8	meg	3	YgF4tgg7pT0	Fixing the roof	Exterior_maintenance&Repair&Decoration	Household Activities	Exterior Maintenance, Repair, & Decoration	Exterior repair, improvements, & decoration	311	12	False	False	False	True	0.0
video_on	action	8	meg	3	Gg5jm1JEuxQ	Swimming	Participating_in_sports&Exercise&Recreation	Sports, Exercise, and Recreation	Participating in Sports, Exercise, or Recreation	Participating in water sports	377	1	False	True	False	False	0.0
video_on	action	8	meg	3	t5W3JqLKDmY	Playing polo	Participating_in_sports&Exercise&Recreation	Sports, Exercise, and Recreation	Participating in Sports, Exercise, or Recreation	Participating in equestrian sports	75	1	True	True	True	True	0.3295720566720774
video_on	action	8	meg	3	9sEA0ilfRCc	Painting fence	Exterior_maintenance&Repair&Decoration	Household Activities	Exterior Maintenance, Repair, & Decoration	Painting fence	336	12	True	False	True	False	0.5291657421958007
video_on	action	8	meg	3	f7Nt4I-CwXA	Tango	Arts&Entertainment	Socializing, Relaxing, and Leisure	Arts and Entertainment	Dancing	73	2	True	False	True	False	0.3211722746209489
video_on	action	8	meg	3	Y7ey2FHIVvg	Mowing the lawn	Lawn&Garden&Houseplants	Household Activities	Lawn, Garden, and Houseplants	Lawn, garden, and houseplant care	218	9	True	False	False	True	0.4254251435004335
video_on	action	8	meg	3	XPwYJVCWtqw	Playing beach volleyball	Participating_in_sports&Exercise&Recreation	Sports, Exercise, and Recreation	Participating in Sports, Exercise, or Recreation	Playing volleyball	341	1	True	True	True	True	0.3934971571570713
video_on	action	8	meg	3	xPnNcv7ErXk	Using the monkey bar	Arts&Entertainment	Socializing, Relaxing, and Leisure	Arts and Entertainment	Park activities	383	2	True	False	False	True	0.3136829267923531
video_on	action	8	meg	3	3cB7jZmz25g	Welding	Appliances&Tools&Toys	Household Activities	Appliances, Tools, and Toys	Appliance, tool, and toy set-up, repair, & maintenance (by self)	388	10	True	False	False	True	0.0485325436466155
video_on	action	8	meg	3	KbXuKm1W7hQ	Getting a haircut	Grooming	Personal Care	Grooming	Washing, dressing and grooming	208	4	True	False	False	True	0.3698850335294992
video_on	action	8	meg	3	xujJ0hCbYiY	Cutting the grass	Lawn&Garden&Houseplants	Household Activities	Lawn, Garden, and Houseplants	Lawn, garden, and houseplant care	301	9	True	False	False	True	0.3540254867239127
video_on	action	8	meg	3	UEwGd8B-I6Y	Chopping wood	Interior_maintenance&Repair&Decoration	Household Activities	Interior Maintenance, Repair, & Decoration	Heating and cooling	110	7	False	False	False	True	0.0
video_on	action	8	meg	3	4RSe_WEHV5s	Making a lemonade	Food&Drink_prep.&Presentation&Clean-up	Eating and drinking Activities	Food & Drink Prep., Presentation, & Clean-up	Food and drink preparation	333	5	True	False	False	True	0.0050955337101186
video_on	action	8	meg	3	o-cJOywr_hU	Drum corps	Arts&Entertainment	Socializing, Relaxing, and Leisure	Arts and Entertainment	Playing musical instruments	307	2	False	False	False	True	0.0
video_on	action	8	meg	3	ao3Xc8q3G4k	Cheerleading	Arts&Entertainment	Socializing, Relaxing, and Leisure	Arts and Entertainment	Dancing	140	2	True	False	False	True	0.5387216791114042
video_on	action	8	meg	3	FKjUDHghgjw	Playing piano	Arts&Entertainment	Socializing, Relaxing, and Leisure	Arts and Entertainment	Playing musical instruments	197	2	True	False	False	True	0.3388025797648879
video_on	action	8	meg	3	Kp_NUHJP7zA	Trimming branches or hedges	Lawn&Garden&Houseplants	Household Activities	Lawn, Garden, and Houseplants	Lawn, garden, and houseplant care	381	9	False	False	False	True	0.0
video_on	action	8	meg	3	rPYjUPAE0NA	Javelin throw	Participating_in_sports&Exercise&Recreation	Sports, Exercise, and Recreation	Participating in Sports, Exercise, or Recreation	Playing sports	116	1	True	True	True	True	0.3891559918556595
video_on	action	8	meg	3	lBPiaX7TW1k	Painting furniture	Interior_maintenance&Repair&Decoration	Household Activities	Interior Maintenance, Repair, & Decoration	Building and repairing furniture	337	7	False	False	False	True	0.0
video_on	action	8	meg	3	23J8KntlOzY	Spread mulch	Lawn&Garden&Houseplants	Household Activities	Lawn, Garden, and Houseplants	Lawn, garden, and houseplant care	374	9	False	False	False	True	0.0
video_on	action	8	meg	3	pJTvUSD2J6Q	Playing water polo	Participating_in_sports&Exercise&Recreation	Sports, Exercise, and Recreation	Participating in Sports, Exercise, or Recreation	Participating in water sports	130	1	True	True	True	True	0.3098929726611459
video_on	action	8	meg	3	b2lC-Xhr9cw	Shuffleboard	Relaxing&Leisure	Socializing, Relaxing, and Leisure	Relaxing and Leisure	Playing games	368	3	True	False	False	True	0.3878486010680717
video_on	action	8	meg	3	nm4AcXwLWsg	Beach soccer	Participating_in_sports&Exercise&Recreation	Sports, Exercise, and Recreation	Participating in Sports, Exercise, or Recreation	Playing soccer	278	1	False	True	False	False	0.0
video_on	action	8	meg	3	bA0U-YfoY9U	Doing nails	Grooming	Personal Care	Grooming	Washing, dressing and grooming oneself	167	4	False	False	False	True	0.0
video_on	action	8	meg	3	QJMLj6VBX-s	Doing step aerobics	Participating_in_sports&Exercise&Recreation	Sports, Exercise, and Recreation	Participating in Sports, Exercise, or Recreation	Doing aerobics	230	1	False	True	False	False	0.0
video_on	action	8	meg	3	_cDOSRkxof8	Starting a campfire	Participating_in_sports&Exercise&Recreation	Sports, Exercise, and Recreation	Participating in Sports, Exercise, or Recreation	Playing sports	153	1	True	True	False	False	0.948353384922484
video_on	action	8	meg	3	nUCSmi3lUzw	Making a sandwich	Food&Drink_prep.&Presentation&Clean-up	Eating and drinking Activities	Food & Drink Prep., Presentation, & Clean-up	Food and drink preparation	129	5	True	False	False	True	0.0050973449197044
video_on	action	8	meg	3	AOMYzA8mzoU	High jump	Participating_in_sports&Exercise&Recreation	Sports, Exercise, and Recreation	Participating in Sports, Exercise, or Recreation	Playing sports	195	1	False	True	False	False	0.0
video_on	action	8	meg	3	caQrq9ln5cc	Cleaning sink	Interior_maintenance&Repair&Decoration	Household Activities	Interior Maintenance, Repair, & Decoration	Interior arrangement, decoration, & repairs	297	7	False	False	False	True	0.0
video_on	action	8	meg	3	R1CBrE0yqhk	Playing violin	Arts&Entertainment	Socializing, Relaxing, and Leisure	Arts and Entertainment	Playing musical instruments	234	2	False	False	False	True	0.0
video_on	action	8	meg	3	dsRhdHkHbRI	Using the pommel horse	Participating_in_sports&Exercise&Recreation	Sports, Exercise, and Recreation	Participating in Sports, Exercise, or Recreation	Doing gymnastics	114	1	True	True	False	False	0.6373205582749506
video_on	action	8	meg	3	GkcSeC-Eh90	Fun sliding down	Arts&Entertainment	Socializing, Relaxing, and Leisure	Arts and Entertainment	Park activities	313	2	True	False	True	False	0.3593905886582433
video_on	action	8	meg	3	VEzGzzcSF8w	Raking leaves	Lawn&Garden&Houseplants	Household Activities	Lawn, Garden, and Houseplants	Lawn, garden, and houseplant care	354	9	True	False	False	True	0.4773863051486842
video_on	action	8	meg	3	QsN1bja0DWU	Running a marathon	Participating_in_sports&Exercise&Recreation	Sports, Exercise, and Recreation	Participating in Sports, Exercise, or Recreation	Running	362	1	False	True	False	False	0.0
video_on	action	8	meg	3	IdFW5ArdTC8	Ballet	Arts&Entertainment	Socializing, Relaxing, and Leisure	Arts and Entertainment	Attending arts and entertainment	229	2	True	False	True	False	0.0053735542405775
video_on	action	8	meg	3	nM6Taa-C6O4	Dodgeball	Participating_in_sports&Exercise&Recreation	Sports, Exercise, and Recreation	Participating in Sports, Exercise, or Recreation	Playing sports	161	1	False	True	False	False	0.0
video_on	action	8	meg	3	v4uT3tkhQKs	Doing karate	Participating_in_sports&Exercise&Recreation	Sports, Exercise, and Recreation	Participating in Sports, Exercise, or Recreation	Participating in martial arts	99	1	False	True	False	False	0.0
video_on	action	8	meg	3	kVUEB1_3cak	Preparing pasta	Food&Drink_prep.&Presentation&Clean-up	Eating and drinking Activities	Food & Drink Prep., Presentation, & Clean-up	Food and drink preparation	186	5	False	False	False	True	0.0
video_on	action	8	eeg	3	aiLAIhT1SeI	Skateboarding	Participating_in_sports&Exercise&Recreation	Sports, Exercise, and Recreation	Participating in Sports, Exercise, or Recreation	Playing sports	176	1	True	True	True	True	0.7785461999592371
video_on	action	8	eeg	3	KOYA3PA8Yqc	Mooping floor	Housework	Household Activities	Housework	Interior cleaning	335	6	True	False	False	True	0.5265444000251591
video_on	action	8	eeg	3	0v8fqweLOqo	Snow tubing	Participating_in_sports&Exercise&Recreation	Sports, Exercise, and Recreation	Participating in Sports, Exercise, or Recreation	Skiing, ice skating, snowboarding	372	1	True	True	True	True	0.7006066999747418
video_on	action	8	eeg	3	xvBJdDakYKU	Playing pool	Relaxing&Leisure	Socializing, Relaxing, and Leisure	Relaxing and Leisure	Playing games	348	3	True	False	True	False	0.4556999999913387
video_on	action	8	eeg	3	YjKxgp1Fx60	Futsal	Participating_in_sports&Exercise&Recreation	Sports, Exercise, and Recreation	Participating in Sports, Exercise, or Recreation	Playing soccer	315	1	True	True	True	True	0.4591307999799028
video_on	action	8	eeg	3	2QptL8XKS_A	Cleaning windows	Housework	Household Activities	Housework	Interior cleaning	143	6	True	False	False	True	0.5378213000367396
video_on	action	8	eeg	3	0vJfctL116Y	Preparing salad	Food&Drink_prep.&Presentation&Clean-up	Eating and drinking Activities	Food & Drink Prep., Presentation, & Clean-up	Food and drink preparation	96	5	True	False	False	True	0.4510697000077925
video_on	action	8	eeg	3	DkeQ3pdAFnE	Throwing darts	Relaxing&Leisure	Socializing, Relaxing, and Leisure	Relaxing and Leisure	Playing games	380	3	True	False	False	True	0.5754129000124522
video_on	action	8	eeg	3	lELcTXacvAQ	Playing guitarra	Arts&Entertainment	Socializing, Relaxing, and Leisure	Arts and Entertainment	Playing musical instruments	251	2	True	False	False	True	0.4498872000258416
