event_name	task	subject	session	run	video_id	class_name	raw_superclass_name	superclass_level0	superclass_level1	superclass_level2	class_id	superclass_id	is_resp	stim_is_sports	resp_is_sports	resp_is_right	resp_time
video_on	action	6	meg	1	908pd0qjYTU	Mowing the lawn	Lawn&Garden&Houseplants	Household Activities	Lawn, Garden, and Houseplants	Lawn, garden, and houseplant care	218	9	True	False	False	True	0.3941630782094307
video_on	action	6	meg	1	RVSO9JBQD6c	Playing accordion	Arts&Entertainment	Socializing, Relaxing, and Leisure	Arts and Entertainment	Playing musical instruments	267	2	True	False	False	True	0.3304444555129748
video_on	action	6	meg	1	B7BpTORAe9U	Snowboarding	Participating_in_sports&Exercise&Recreation	Sports, Exercise, and Recreation	Participating in Sports, Exercise, or Recreation	Skiing, ice skating, snowboarding	373	1	True	True	True	True	0.3145752489280085
video_on	action	6	meg	1	8OgqPgisDPo	Grooming horse	Animals&Pets	Household Activities	Animals and Pets	Walking / exercising / playing with animals	95	8	True	False	False	True	0.3007596511008614
video_on	action	6	meg	1	yN2uhGHT8eU	Doing motocross	Participating_in_sports&Exercise&Recreation	Sports, Exercise, and Recreation	Participating in Sports, Exercise, or Recreation	Playing sports	243	1	True	True	True	True	0.2747793721445077
video_on	action	6	meg	1	0bUwf2KpXNg	Playing squash	Participating_in_sports&Exercise&Recreation	Sports, Exercise, and Recreation	Participating in Sports, Exercise, or Recreation	Playing racquet sports	194	1	True	True	True	True	0.2910763258424822
video_on	action	6	meg	1	IUH5UFX7-28	Snatch	Participating_in_sports&Exercise&Recreation	Sports, Exercise, and Recreation	Participating in Sports, Exercise, or Recreation	Weightlifting	79	1	True	True	True	True	0.3631953343265195
video_on	action	6	meg	1	u9Q74KnyjEw	Sumo	Participating_in_sports&Exercise&Recreation	Sports, Exercise, and Recreation	Participating in Sports, Exercise, or Recreation	Wrestling	375	1	True	True	True	True	0.3072993218532929
video_on	action	6	meg	1	pZ_YbCMKWaM	Getting a haircut	Grooming	Personal Care	Grooming	Washing, dressing and grooming	208	4	True	False	False	True	0.5072742668000956
video_on	action	6	meg	1	xE7uTF25kh8	Doing fencing	Participating_in_sports&Exercise&Recreation	Sports, Exercise, and Recreation	Participating in Sports, Exercise, or Recreation	Fencing	309	1	True	True	True	True	0.2262978442089434
video_on	action	6	meg	1	WnvAjhrgZD4	Washing hands	Grooming	Personal Care	Grooming	Washing, dressing and grooming oneself	173	4	True	False	False	True	0.3318635375018175
video_on	action	6	meg	1	3wpVUa_qH3s	Sailing	Participating_in_sports&Exercise&Recreation	Sports, Exercise, and Recreation	Participating in Sports, Exercise, or Recreation	Participating in water sports	240	1	True	True	True	True	0.1719096629491332
video_on	action	6	meg	1	fwinT8xRHfI	Shoveling snow	Exterior_maintenance&Repair&Decoration	Household Activities	Exterior Maintenance, Repair, & Decoration	Exterior cleaning	183	12	True	False	False	True	0.3982153557288939
video_on	action	6	meg	1	8iUUI_jtL1o	Using uneven bars	Participating_in_sports&Exercise&Recreation	Sports, Exercise, and Recreation	Participating in Sports, Exercise, or Recreation	Doing gymnastics	192	1	True	True	True	True	0.3873049366001169
video_on	action	6	meg	1	p9XmtGoHPAg	Doing crunches	Participating_in_sports&Exercise&Recreation	Sports, Exercise, and Recreation	Participating in Sports, Exercise, or Recreation	Working out	305	1	True	True	True	True	0.3723183923711985
video_on	action	6	meg	1	_G1CBu7eaZg	Croquet	Participating_in_sports&Exercise&Recreation	Sports, Exercise, and Recreation	Participating in Sports, Exercise, or Recreation	Playing sports	299	1	True	True	True	True	0.3404534964628283
video_on	action	6	meg	1	eYenApQlzjU	Rope skipping	Participating_in_sports&Exercise&Recreation	Sports, Exercise, and Recreation	Participating in Sports, Exercise, or Recreation	Working out	361	1	True	True	True	True	0.412752418340915
video_on	action	6	meg	1	Ln67BwL_CJY	Cheerleading	Arts&Entertainment	Socializing, Relaxing, and Leisure	Arts and Entertainment	Dancing	140	2	True	False	True	False	0.0053478954509955
video_on	action	6	meg	1	9Yq5xco2B5s	Making an omelette	Food&Drink_prep.&Presentation&Clean-up	Eating and drinking Activities	Food & Drink Prep., Presentation, & Clean-up	Food and drink preparation	334	5	True	False	False	True	0.4209795318326996
video_on	action	6	meg	1	q04JVZ6EgEY	Swinging at the playground	Arts&Entertainment	Socializing, Relaxing, and Leisure	Arts and Entertainment	Park activities	378	2	True	False	False	True	0.3731452091267329
video_on	action	6	meg	1	2kMkO6nip4Y	Putting in contact lenses	Grooming	Personal Care	Grooming	Washing, dressing and grooming oneself	351	4	True	False	False	True	0.4394345406549291
video_on	action	6	meg	1	ZMKIuWVPKQE	Kayaking	Participating_in_sports&Exercise&Recreation	Sports, Exercise, and Recreation	Participating in Sports, Exercise, or Recreation	Participating in water sports	254	1	True	True	True	True	0.4529639675130283
video_on	action	6	meg	1	8qvWLZrclGk	Clean and jerk	Participating_in_sports&Exercise&Recreation	Sports, Exercise, and Recreation	Participating in Sports, Exercise, or Recreation	Weightlifting	84	1	True	True	True	True	0.4536362277957551
video_on	action	6	meg	1	B-ub6-7UOuM	Fun sliding down	Arts&Entertainment	Socializing, Relaxing, and Leisure	Arts and Entertainment	Park activities	313	2	True	False	False	True	0.6938417396055456
video_on	action	6	meg	1	AmHvXzN3wGs	Mooping floor	Housework	Household Activities	Housework	Interior cleaning	335	6	True	False	False	True	0.6779782685147211
video_on	action	6	meg	1	RKIZF5KSPIw	Sharpening knives	Appliances&Tools&Toys	Household Activities	Appliances, Tools, and Toys	Appliance, tool, and toy set-up, repair, & maintenance (by self)	365	10	True	False	False	True	0.5662396742239935
video_on	action	6	meg	1	OTDxXK2j0Oc	Calf roping	Participating_in_sports&Exercise&Recreation	Sports, Exercise, and Recreation	Participating in Sports, Exercise, or Recreation	Participating in rodeo competitions	290	1	True	True	False	False	0.5517967944625752
video_on	action	6	meg	1	p4CztAeXK6A	Swimming	Participating_in_sports&Exercise&Recreation	Sports, Exercise, and Recreation	Participating in Sports, Exercise, or Recreation	Participating in water sports	377	1	True	True	True	True	0.3024884497714311
video_on	action	6	meg	1	5WMPCXuVLwc	Rock-paper-scissors	Relaxing&Leisure	Socializing, Relaxing, and Leisure	Relaxing and Leisure	Playing games	358	3	True	False	False	True	0.286410350453707
video_on	action	6	meg	1	MJ13GfIH0JY	Painting fence	Exterior_maintenance&Repair&Decoration	Household Activities	Exterior Maintenance, Repair, & Decoration	Painting fence	336	12	True	False	False	True	0.4408910542894091
video_on	action	6	meg	1	7ABqMQWaxqE	Smoking a cigarette	Relaxing&Leisure	Socializing, Relaxing, and Leisure	Relaxing and Leisure	Tobacco and drug use	201	3	True	False	False	True	0.2949544254620377
video_on	action	6	meg	1	pkPZl2mydEs	Fixing bicycle	Vehicles	Household Activities	Vehicles	Vehicle repair and maintenance (by self)	171	11	True	False	False	True	0.3510798576993466
video_on	action	6	meg	1	h6Hve4EG__M	Kneeling	Participating_in_sports&Exercise&Recreation	Sports, Exercise, and Recreation	Participating in Sports, Exercise, or Recreation	Working out	328	1	True	True	False	False	0.5772958956503089
video_on	action	6	meg	1	B2b3Nz7Is4o	Using parallel bars	Participating_in_sports&Exercise&Recreation	Sports, Exercise, and Recreation	Participating in Sports, Exercise, or Recreation	Doing gymnastics	88	1	True	True	True	True	0.3688239671205338
video_on	action	6	meg	1	gROUVAz_NEQ	Starting a campfire	Participating_in_sports&Exercise&Recreation	Sports, Exercise, and Recreation	Participating in Sports, Exercise, or Recreation	Playing sports	153	1	True	True	False	False	0.3515483570072319
video_on	action	6	meg	1	MXumK3nMMdw	Capoeira	Participating_in_sports&Exercise&Recreation	Sports, Exercise, and Recreation	Participating in Sports, Exercise, or Recreation	Participating in martial arts	294	1	True	True	True	True	0.2950114785348887
video_on	action	6	meg	1	1ue3weq2v0w	Baking cookies	Food&Drink_prep.&Presentation&Clean-up	Eating and drinking Activities	Food & Drink Prep., Presentation, & Clean-up	Food and drink preparation	276	5	True	False	False	True	0.3758251942144852
video_on	action	6	meg	1	p_PLzKaoNj8	Horseback riding	Participating_in_sports&Exercise&Recreation	Sports, Exercise, and Recreation	Participating in Sports, Exercise, or Recreation	Participating in equestrian sports	175	1	True	True	True	True	0.3113147714632305
video_on	action	6	meg	1	bXBCK3dRDs8	Spread mulch	Lawn&Garden&Houseplants	Household Activities	Lawn, Garden, and Houseplants	Lawn, garden, and houseplant care	374	9	True	False	False	True	0.391301972255178
video_on	action	6	meg	1	DScOSAwwqX0	Using the balance beam	Participating_in_sports&Exercise&Recreation	Sports, Exercise, and Recreation	Participating in Sports, Exercise, or Recreation	Doing gymnastics	180	1	True	True	True	True	0.6075301000239506
video_on	action	6	meg	1	AJjoABeS34Q	Preparing salad	Food&Drink_prep.&Presentation&Clean-up	Eating and drinking Activities	Food & Drink Prep., Presentation, & Clean-up	Food and drink preparation	96	5	True	False	False	True	0.5999112507754489
video_on	action	6	meg	1	7VOR35YxocU	Fixing the roof	Exterior_maintenance&Repair&Decoration	Household Activities	Exterior Maintenance, Repair, & Decoration	Exterior repair, improvements, & decoration	311	12	True	False	False	True	0.5286824513502779
video_on	action	6	meg	1	ChQPKffPOGM	Bungee jumping	Participating_in_sports&Exercise&Recreation	Sports, Exercise, and Recreation	Participating in Sports, Exercise, or Recreation	Playing sports	154	1	True	True	False	False	0.8641536146442377
video_on	action	6	meg	1	R0dgIsycfz8	Making a lemonade	Food&Drink_prep.&Presentation&Clean-up	Eating and drinking Activities	Food & Drink Prep., Presentation, & Clean-up	Food and drink preparation	333	5	True	False	False	True	0.5782325923978533
video_on	action	6	meg	1	-0P2EwMEeXc	Skiing	Participating_in_sports&Exercise&Recreation	Sports, Exercise, and Recreation	Participating in Sports, Exercise, or Recreation	Skiing, ice skating, snowboarding	369	1	True	True	True	True	0.4163334797394782
video_on	action	6	meg	1	2-p7n5NAIa0	Walking the dog	Animals&Pets	Household Activities	Animals and Pets	Walking / exercising / playing with animals	221	8	True	False	False	True	0.5112664725654668
video_on	action	6	meg	1	cbL66gVAa5Y	Bullfighting	Participating_in_sports&Exercise&Recreation	Sports, Exercise, and Recreation	Participating in Sports, Exercise, or Recreation	Participating in rodeo competitions	288	1	True	True	False	False	0.3847610940304093
video_on	action	6	meg	1	tiMInyjCq68	Raking leaves	Lawn&Garden&Houseplants	Household Activities	Lawn, Garden, and Houseplants	Lawn, garden, and houseplant care	354	9	True	False	False	True	0.3607671072429639
video_on	action	6	meg	1	5O6YLMfAMAg	Playing drums	Arts&Entertainment	Socializing, Relaxing, and Leisure	Arts and Entertainment	Playing musical instruments	346	2	True	False	False	True	0.3718076315278722
video_on	action	6	meg	1	iwy7s11ywDU	Vacuuming floor	Housework	Household Activities	Housework	Interior cleaning	160	6	True	False	False	True	0.5793193175968554
video_on	action	6	meg	1	CN-S2mIfS3Y	Dodgeball	Participating_in_sports&Exercise&Recreation	Sports, Exercise, and Recreation	Participating in Sports, Exercise, or Recreation	Playing sports	161	1	True	True	True	True	0.3853409826710958
video_on	action	6	meg	1	01WMXesj4IE	Playing bagpipes	Arts&Entertainment	Socializing, Relaxing, and Leisure	Arts and Entertainment	Playing musical instruments	136	2	True	False	False	True	0.3455598974251188
video_on	action	6	meg	1	RgzulO3PY8A	Plastering	Interior_maintenance&Repair&Decoration	Household Activities	Interior Maintenance, Repair, & Decoration	Interior arrangement, decoration, & repairs	340	7	True	False	False	True	0.3615670577369201
video_on	action	6	meg	1	Xb87Qdymzog	Playing beach volleyball	Participating_in_sports&Exercise&Recreation	Sports, Exercise, and Recreation	Participating in Sports, Exercise, or Recreation	Playing volleyball	341	1	True	True	False	False	0.6498109550957452
video_on	action	6	meg	1	bU3Pxtfh5S8	Playing flauta	Arts&Entertainment	Socializing, Relaxing, and Leisure	Arts and Entertainment	Playing musical instruments	149	2	True	False	False	True	0.5706771354527973
video_on	action	6	meg	1	yMtJDJKzccQ	Laying tile	Interior_maintenance&Repair&Decoration	Household Activities	Interior Maintenance, Repair, & Decoration	Interior arrangement, decoration, & repairs	330	7	True	False	False	True	0.340331239877969
video_on	action	6	meg	1	xgHV51Sjl1c	Triple jump	Participating_in_sports&Exercise&Recreation	Sports, Exercise, and Recreation	Participating in Sports, Exercise, or Recreation	Playing sports	155	1	True	True	True	True	0.4341663383852392
video_on	action	6	meg	1	olZp978hiik	Powerbocking	Participating_in_sports&Exercise&Recreation	Sports, Exercise, and Recreation	Participating in Sports, Exercise, or Recreation	Playing sports	350	1	True	True	True	True	0.5529774006438402
video_on	action	6	meg	1	AMwDWnlR4gA	Blow-drying hair	Grooming	Personal Care	Grooming	Washing, dressing and grooming oneself	281	4	True	False	False	True	0.3485743523797282
video_on	action	6	meg	1	vOldbivc1-A	Playing harmonica	Arts&Entertainment	Socializing, Relaxing, and Leisure	Arts and Entertainment	Playing musical instruments	100	2	True	False	False	True	0.3545259840523158
video_on	action	6	meg	1	BNUfzjX0b9U	Tumbling	Participating_in_sports&Exercise&Recreation	Sports, Exercise, and Recreation	Participating in Sports, Exercise, or Recreation	Doing gymnastics	258	1	True	True	True	True	0.381022759346024
video_on	action	6	meg	1	CyJym8ky4H0	Ping-pong	Participating_in_sports&Exercise&Recreation	Sports, Exercise, and Recreation	Participating in Sports, Exercise, or Recreation	Playing racquet sports	119	1	True	True	False	False	0.7570770714567061
video_on	action	6	meg	1	Fnz1P56mAI0	Using the monkey bar	Arts&Entertainment	Socializing, Relaxing, and Leisure	Arts and Entertainment	Park activities	383	2	True	False	False	True	0.651057972261242
video_on	action	6	meg	1	VekBDyWT1GY	Waterskiing	Participating_in_sports&Exercise&Recreation	Sports, Exercise, and Recreation	Participating in Sports, Exercise, or Recreation	Participating in water sports	386	1	True	True	False	False	0.6692926173625438
video_on	action	6	meg	1	vkHEmeJYA4E	Doing karate	Participating_in_sports&Exercise&Recreation	Sports, Exercise, and Recreation	Participating in Sports, Exercise, or Recreation	Participating in martial arts	99	1	True	True	True	True	0.6056642532309979
video_on	action	6	meg	1	SLjgKnQ-g_o	Table soccer	Relaxing&Leisure	Socializing, Relaxing, and Leisure	Relaxing and Leisure	Playing games	379	3	True	False	False	True	0.4183034710304127
video_on	action	6	meg	1	yez4i7O5VOU	Making a cake	Food&Drink_prep.&Presentation&Clean-up	Eating and drinking Activities	Food & Drink Prep., Presentation, & Clean-up	Food and drink preparation	332	5	True	False	False	True	0.3260731034004038
video_on	action	6	meg	1	Jgp9QBzBzT0	Playing blackjack	Arts&Entertainment	Socializing, Relaxing, and Leisure	Arts and Entertainment	Attending gambling establishments	343	2	True	False	False	True	0.4520351193359602
video_on	action	6	meg	1	PhC8QGCuYFU	Pole vault	Participating_in_sports&Exercise&Recreation	Sports, Exercise, and Recreation	Participating in Sports, Exercise, or Recreation	Playing sports	106	1	True	True	True	True	0.005094326237895
video_on	action	6	meg	1	PCXfCe_HQ2A	Brushing hair	Grooming	Personal Care	Grooming	Washing, dressing and grooming oneself	125	4	True	False	False	True	0.652159187129655
video_on	action	6	meg	1	GTN2eJdsV-A	Playing polo	Participating_in_sports&Exercise&Recreation	Sports, Exercise, and Recreation	Participating in Sports, Exercise, or Recreation	Participating in equestrian sports	75	1	True	True	True	True	0.8205913294423226
video_on	action	6	meg	1	rv1GZF48Fhw	Playing pool	Relaxing&Leisure	Socializing, Relaxing, and Leisure	Relaxing and Leisure	Playing games	348	3	True	False	True	False	0.8199060888307486
video_on	action	6	meg	1	N1GA0iVhSBI	Having an ice cream	Food&Drink_prep.&Presentation&Clean-up	Eating and drinking Activities	Food & Drink Prep., Presentation, & Clean-up	Eating and Drinking	320	5	True	False	False	True	0.3408157381957153
video_on	action	6	meg	1	pFPJNezpWrk	Tai chi	Participating_in_sports&Exercise&Recreation	Sports, Exercise, and Recreation	Participating in Sports, Exercise, or Recreation	Participating in martial arts	263	1	True	True	True	True	0.6688220049779829
video_on	action	6	meg	1	e15RkUZoRus	Hitting a pinata	Relaxing&Leisure	Socializing, Relaxing, and Leisure	Relaxing and Leisure	Playing games	321	3	True	False	False	True	0.9570160940982078
video_on	action	6	meg	1	z_v_u5F_lKo	Breakdancing	Arts&Entertainment	Socializing, Relaxing, and Leisure	Arts and Entertainment	Dancing	236	2	True	False	True	False	0.5675045016080276
video_on	action	6	meg	1	DZljZmUzxu8	Elliptical trainer	Participating_in_sports&Exercise&Recreation	Sports, Exercise, and Recreation	Participating in Sports, Exercise, or Recreation	Using cardiovascular equipment	308	1	True	True	True	True	0.6686647316919334
video_on	action	6	meg	1	L0FAzc47UxU	Skateboarding	Participating_in_sports&Exercise&Recreation	Sports, Exercise, and Recreation	Participating in Sports, Exercise, or Recreation	Playing sports	176	1	True	True	True	True	0.4317930512979728
video_on	action	6	meg	1	dMdkKorniXM	Decorating the Christmas tree	Interior_maintenance&Repair&Decoration	Household Activities	Interior Maintenance, Repair, & Decoration	Interior arrangement, decoration, & repairs	302	7	True	False	False	True	0.396959886256127
video_on	action	6	meg	1	_GzRlI7eSc4	Hanging wallpaper	Interior_maintenance&Repair&Decoration	Household Activities	Interior Maintenance, Repair, & Decoration	Interior arrangement, decoration, & repairs	319	7	True	False	False	True	0.6538843633829856
video_on	action	6	meg	1	AYZjUi__aqc	Hopscotch	Relaxing&Leisure	Socializing, Relaxing, and Leisure	Relaxing and Leisure	Playing games	241	3	True	False	False	True	0.8234340214416989
video_on	action	6	meg	1	NbBxipaA8UQ	Chopping wood	Interior_maintenance&Repair&Decoration	Household Activities	Interior Maintenance, Repair, & Decoration	Heating and cooling	110	7	True	False	False	True	0.7015614128031302
video_on	action	6	meg	1	-rwakixgdt8	Washing dishes	Food&Drink_prep.&Presentation&Clean-up	Eating and drinking Activities	Food & Drink Prep., Presentation, & Clean-up	Kitchen and food clean-up	213	5	True	False	False	True	0.6625023960782528
video_on	action	6	meg	1	yiWSIxutRcE	Painting	Interior_maintenance&Repair&Decoration	Household Activities	Interior Maintenance, Repair, & Decoration	Interior arrangement, decoration, & repairs	217	7	True	False	False	True	0.7416896463764715
video_on	action	6	meg	1	gZgXI-KI70k	Playing rubik cube	Relaxing&Leisure	Socializing, Relaxing, and Leisure	Relaxing and Leisure	Playing games	349	3	True	False	False	True	0.6407814761653299
video_on	action	6	meg	1	K5_fub1VQrk	Getting a tattoo	Grooming	Personal Care	Grooming	Washing, dressing and grooming	187	4	True	False	True	False	0.8063069304389501
video_on	action	6	meg	1	4i9lSVK_nxw	Playing field hockey	Participating_in_sports&Exercise&Recreation	Sports, Exercise, and Recreation	Participating in Sports, Exercise, or Recreation	Playing hockey	94	1	True	True	True	True	0.9431431413302108
video_on	action	6	meg	1	0h2IOCU6eZ8	Long jump	Participating_in_sports&Exercise&Recreation	Sports, Exercise, and Recreation	Participating in Sports, Exercise, or Recreation	Playing sports	80	1	True	True	True	True	0.5131468090278304
video_on	action	6	meg	1	jhpP28EEnHI	Assembling bicycle	Vehicles	Household Activities	Vehicles	Vehicle repair and maintenance (by self)	273	11	True	False	False	True	0.3667181351795534
video_on	action	6	meg	1	Rl0QTfwosZU	Paintball	Participating_in_sports&Exercise&Recreation	Sports, Exercise, and Recreation	Participating in Sports, Exercise, or Recreation	Playing sports	141	1	False	True	False	False	0.0
video_on	action	6	eeg	1	vbHfbJ0LyaU	Washing hands	Grooming	Personal Care	Grooming	Washing, dressing and grooming oneself	173	4	True	False	False	True	0.715438199986238
video_on	action	6	eeg	1	8liqC5RmwQo	Welding	Appliances&Tools&Toys	Household Activities	Appliances, Tools, and Toys	Appliance, tool, and toy set-up, repair, & maintenance (by self)	388	10	True	False	False	True	0.7066245000169147
video_on	action	6	eeg	1	KARCyCorlbY	Getting a haircut	Grooming	Personal Care	Grooming	Washing, dressing and grooming	208	4	True	False	False	True	0.7905641999968793
video_on	action	6	eeg	1	fE8zvQmGoqc	Shoveling snow	Exterior_maintenance&Repair&Decoration	Household Activities	Exterior Maintenance, Repair, & Decoration	Exterior cleaning	183	12	True	False	False	True	0.6612818999856245
video_on	action	6	eeg	1	ziuqw_lzvE8	Putting on shoes	Grooming	Personal Care	Grooming	Washing, dressing and grooming oneself	352	4	True	False	False	True	0.9736669000121764
video_on	action	6	eeg	1	XD3wTspMZgI	Playing congas	Arts&Entertainment	Socializing, Relaxing, and Leisure	Arts and Entertainment	Playing musical instruments	345	2	True	False	False	True	0.5737406000262126
video_on	action	6	eeg	1	5bSKI_JoPz8	Elliptical trainer	Participating_in_sports&Exercise&Recreation	Sports, Exercise, and Recreation	Participating in Sports, Exercise, or Recreation	Using cardiovascular equipment	308	1	True	True	False	False	0.976550599996699
video_on	action	6	eeg	1	WxFPOZrAF8M	Laying tile	Interior_maintenance&Repair&Decoration	Household Activities	Interior Maintenance, Repair, & Decoration	Interior arrangement, decoration, & repairs	330	7	True	False	False	True	0.7954360000148881
video_on	action	6	eeg	1	1fvu2beljg8	Kayaking	Participating_in_sports&Exercise&Recreation	Sports, Exercise, and Recreation	Participating in Sports, Exercise, or Recreation	Participating in water sports	254	1	True	True	True	True	0.8429661999980453
video_on	action	6	eeg	1	dyBmDOAnUu8	Doing crunches	Participating_in_sports&Exercise&Recreation	Sports, Exercise, and Recreation	Participating in Sports, Exercise, or Recreation	Working out	305	1	True	True	False	False	0.8943444000033196
video_on	action	6	eeg	1	K1-S86ghciQ	Camel ride	Participating_in_sports&Exercise&Recreation	Sports, Exercise, and Recreation	Participating in Sports, Exercise, or Recreation	Playing sports	291	1	True	True	False	False	0.7454429999925196
video_on	action	6	eeg	1	RTthkTpueTQ	Smoking a cigarette	Relaxing&Leisure	Socializing, Relaxing, and Leisure	Relaxing and Leisure	Tobacco and drug use	201	3	True	False	False	True	0.9669465000042692
video_on	action	6	eeg	1	6Yg9HpfkTtc	Raking leaves	Lawn&Garden&Houseplants	Household Activities	Lawn, Garden, and Houseplants	Lawn, garden, and houseplant care	354	9	True	False	False	True	0.901527400012128
video_on	action	6	eeg	1	phVBnd1ttu8	Rafting	Participating_in_sports&Exercise&Recreation	Sports, Exercise, and Recreation	Participating in Sports, Exercise, or Recreation	Boating	353	1	True	True	True	True	0.6755100000009406
video_on	action	6	eeg	1	lxO5N7A8BVs	Fixing the roof	Exterior_maintenance&Repair&Decoration	Household Activities	Exterior Maintenance, Repair, & Decoration	Exterior repair, improvements, & decoration	311	12	True	False	False	True	0.7553361000027508
video_on	action	6	eeg	1	_xnjXZP_xJQ	Baton twirling	Participating_in_sports&Exercise&Recreation	Sports, Exercise, and Recreation	Participating in Sports, Exercise, or Recreation	Playing sports	277	1	True	True	True	True	0.9695462000090628
video_on	action	6	eeg	1	fNwhc0mJDXo	Playing bagpipes	Arts&Entertainment	Socializing, Relaxing, and Leisure	Arts and Entertainment	Playing musical instruments	136	2	False	False	False	True	0.0
video_on	action	6	eeg	1	1JHgbOPciOA	Snow tubing	Participating_in_sports&Exercise&Recreation	Sports, Exercise, and Recreation	Participating in Sports, Exercise, or Recreation	Skiing, ice skating, snowboarding	372	1	True	True	False	False	0.0050689000054262
video_on	action	6	eeg	1	7t_OIXb_dOs	Hammer throw	Participating_in_sports&Exercise&Recreation	Sports, Exercise, and Recreation	Participating in Sports, Exercise, or Recreation	Playing sports	224	1	True	True	True	True	0.7487736000039149
video_on	action	6	eeg	1	cidC66nnRZ0	Building sandcastles	Arts&Entertainment	Socializing, Relaxing, and Leisure	Arts and Entertainment	Beach activities	286	2	True	False	False	True	0.7562851999828126
video_on	action	6	eeg	1	I4Uqu_dooms	Playing kickball	Participating_in_sports&Exercise&Recreation	Sports, Exercise, and Recreation	Participating in Sports, Exercise, or Recreation	Playing sports	257	1	True	True	True	True	0.6124745999986771
video_on	action	6	eeg	1	9jwnKa6jt0Q	Volleyball	Participating_in_sports&Exercise&Recreation	Sports, Exercise, and Recreation	Participating in Sports, Exercise, or Recreation	Playing volleyball	123	1	True	True	True	True	0.7146739000163507
video_on	action	6	eeg	1	tgR7V-UpdxA	Playing blackjack	Arts&Entertainment	Socializing, Relaxing, and Leisure	Arts and Entertainment	Attending gambling establishments	343	2	True	False	False	True	0.6915692000184208
video_on	action	6	eeg	1	FTqU-DYJ5hU	Mowing the lawn	Lawn&Garden&Houseplants	Household Activities	Lawn, Garden, and Houseplants	Lawn, garden, and houseplant care	218	9	False	False	False	True	0.0
video_on	action	6	eeg	1	HvKHW7nEbBc	Running a marathon	Participating_in_sports&Exercise&Recreation	Sports, Exercise, and Recreation	Participating in Sports, Exercise, or Recreation	Running	362	1	True	True	False	False	0.0051001000101678
video_on	action	6	eeg	1	fIUlTg-2B0g	Arm wrestling	Participating_in_sports&Exercise&Recreation	Sports, Exercise, and Recreation	Participating in Sports, Exercise, or Recreation	Wrestling	271	1	True	True	True	True	0.8473709000099916
video_on	action	6	eeg	1	jkB0teWTulU	Doing karate	Participating_in_sports&Exercise&Recreation	Sports, Exercise, and Recreation	Participating in Sports, Exercise, or Recreation	Participating in martial arts	99	1	True	True	True	True	0.786880800005747
video_on	action	6	eeg	1	r1yYqpRSmmY	Ping-pong	Participating_in_sports&Exercise&Recreation	Sports, Exercise, and Recreation	Participating in Sports, Exercise, or Recreation	Playing racquet sports	119	1	True	True	True	True	0.6833916000032332
video_on	action	6	eeg	1	d8Rr7PJ1Qrk	Playing lacrosse	Participating_in_sports&Exercise&Recreation	Sports, Exercise, and Recreation	Participating in Sports, Exercise, or Recreation	Playing racquet sports	209	1	True	True	True	True	0.9556135000020732
video_on	action	6	eeg	1	NNMOtIXlwg0	Bungee jumping	Participating_in_sports&Exercise&Recreation	Sports, Exercise, and Recreation	Participating in Sports, Exercise, or Recreation	Playing sports	154	1	True	True	False	False	0.933316399983596
video_on	action	6	eeg	1	NghRj4EkdE4	Kite flying	Relaxing&Leisure	Socializing, Relaxing, and Leisure	Relaxing and Leisure	Playing games	327	3	True	False	False	True	0.7589199999929406
video_on	action	6	eeg	1	IzWAP03vJ3g	Sailing	Participating_in_sports&Exercise&Recreation	Sports, Exercise, and Recreation	Participating in Sports, Exercise, or Recreation	Participating in water sports	240	1	True	True	True	True	0.6853452000068501
video_on	action	6	eeg	1	4uMiRD4UzFE	Horseback riding	Participating_in_sports&Exercise&Recreation	Sports, Exercise, and Recreation	Participating in Sports, Exercise, or Recreation	Participating in equestrian sports	175	1	True	True	True	True	0.9735001999943051
video_on	action	6	eeg	1	_wJ6Dd1Xpr0	Painting furniture	Interior_maintenance&Repair&Decoration	Household Activities	Interior Maintenance, Repair, & Decoration	Building and repairing furniture	337	7	True	False	False	True	0.850798700004816
video_on	action	6	eeg	1	jAXFc6BFcsw	Decorating the Christmas tree	Interior_maintenance&Repair&Decoration	Household Activities	Interior Maintenance, Repair, & Decoration	Interior arrangement, decoration, & repairs	302	7	True	False	False	True	1.0619217999919783
video_on	action	6	eeg	1	rcm8Gfy_B8c	Zumba	Participating_in_sports&Exercise&Recreation	Sports, Exercise, and Recreation	Participating in Sports, Exercise, or Recreation	Doing aerobics	69	1	True	True	True	True	0.7075444999791216
video_on	action	6	eeg	1	kq5hQ1Qq7jM	Beach soccer	Participating_in_sports&Exercise&Recreation	Sports, Exercise, and Recreation	Participating in Sports, Exercise, or Recreation	Playing soccer	278	1	True	True	True	True	0.7190249999985099
video_on	action	6	eeg	1	iD7AXnsh1e8	Dodgeball	Participating_in_sports&Exercise&Recreation	Sports, Exercise, and Recreation	Participating in Sports, Exercise, or Recreation	Playing sports	161	1	True	True	True	True	0.7533280999923591
video_on	action	6	eeg	1	l5qMvLHXJEI	Making a sandwich	Food&Drink_prep.&Presentation&Clean-up	Eating and drinking Activities	Food & Drink Prep., Presentation, & Clean-up	Food and drink preparation	129	5	True	False	False	True	0.7332882999908179
video_on	action	6	eeg	1	g4cNYqwTY8A	Croquet	Participating_in_sports&Exercise&Recreation	Sports, Exercise, and Recreation	Participating in Sports, Exercise, or Recreation	Playing sports	299	1	True	True	True	True	0.747576099995058
video_on	action	6	eeg	1	37QcLuiYdsk	Playing flauta	Arts&Entertainment	Socializing, Relaxing, and Leisure	Arts and Entertainment	Playing musical instruments	149	2	True	False	False	True	0.7688000999914948
video_on	action	6	eeg	1	CKBfiSeSkM4	Swinging at the playground	Arts&Entertainment	Socializing, Relaxing, and Leisure	Arts and Entertainment	Park activities	378	2	True	False	False	True	0.6849894000042696
video_on	action	6	eeg	1	qXFrFZvnSyo	Discus throw	Participating_in_sports&Exercise&Recreation	Sports, Exercise, and Recreation	Participating in Sports, Exercise, or Recreation	Playing sports	92	1	True	True	True	True	0.6837950999906752
video_on	action	6	eeg	1	1qMoXBZaM3E	Windsurfing	Participating_in_sports&Exercise&Recreation	Sports, Exercise, and Recreation	Participating in Sports, Exercise, or Recreation	Participating in water sports	237	1	False	True	False	False	0.0
video_on	action	6	eeg	1	w9N__iNK8AY	Grooming horse	Animals&Pets	Household Activities	Animals and Pets	Walking / exercising / playing with animals	95	8	True	False	True	False	0.0050710999930743
video_on	action	6	eeg	1	_amer8DTvhc	Playing squash	Participating_in_sports&Exercise&Recreation	Sports, Exercise, and Recreation	Participating in Sports, Exercise, or Recreation	Playing racquet sports	194	1	True	True	True	True	0.0050715999968815
video_on	action	6	eeg	1	zuv9er92A6Q	Hopscotch	Relaxing&Leisure	Socializing, Relaxing, and Leisure	Relaxing and Leisure	Playing games	241	3	False	False	False	True	0.0
video_on	action	6	eeg	1	WjkOohNM2xQ	Archery	Participating_in_sports&Exercise&Recreation	Sports, Exercise, and Recreation	Participating in Sports, Exercise, or Recreation	Playing sports	250	1	True	True	False	False	0.0050755999982357
video_on	action	6	eeg	1	RxMvIftInDc	Hula hoop	Relaxing&Leisure	Socializing, Relaxing, and Leisure	Relaxing and Leisure	Playing games	322	3	True	False	True	False	0.8990621000120882
video_on	action	6	eeg	1	Xx6Q8ZWEvjs	Playing harmonica	Arts&Entertainment	Socializing, Relaxing, and Leisure	Arts and Entertainment	Playing musical instruments	100	2	True	False	False	True	0.7504175000067335
video_on	action	6	eeg	1	uT60Rtrw4fA	Fun sliding down	Arts&Entertainment	Socializing, Relaxing, and Leisure	Arts and Entertainment	Park activities	313	2	True	False	False	True	0.6942252999870107
video_on	action	6	eeg	1	nu1eyL9tOdY	Pole vault	Participating_in_sports&Exercise&Recreation	Sports, Exercise, and Recreation	Participating in Sports, Exercise, or Recreation	Playing sports	106	1	True	True	True	True	0.6261884999985341
video_on	action	6	eeg	1	Ixdbx8I3i8Q	Fixing bicycle	Vehicles	Household Activities	Vehicles	Vehicle repair and maintenance (by self)	171	11	True	False	False	True	0.9417969999776687
video_on	action	6	eeg	1	GIuXtF4s4sI	Carving jack-o-lanterns	Interior_maintenance&Repair&Decoration	Household Activities	Interior Maintenance, Repair, & Decoration	Interior arrangement, decoration, & repairs	295	7	True	False	False	True	0.5867445000039879
video_on	action	6	eeg	1	CwlCWk-90nY	Surfing	Participating_in_sports&Exercise&Recreation	Sports, Exercise, and Recreation	Participating in Sports, Exercise, or Recreation	Participating in water sports	376	1	True	True	True	True	0.6117536000092514
video_on	action	6	eeg	1	gPUUzvK3rVo	Powerbocking	Participating_in_sports&Exercise&Recreation	Sports, Exercise, and Recreation	Participating in Sports, Exercise, or Recreation	Playing sports	350	1	True	True	True	True	0.6516413000063039
video_on	action	6	eeg	1	9H4p7HrU2bY	Braiding hair	Grooming	Personal Care	Grooming	Washing, dressing and grooming oneself	285	4	True	False	False	True	0.7723644000070635
video_on	action	6	eeg	1	kITt3ZOD8qI	Making a cake	Food&Drink_prep.&Presentation&Clean-up	Eating and drinking Activities	Food & Drink Prep., Presentation, & Clean-up	Food and drink preparation	332	5	True	False	False	True	0.7578891999728512
video_on	action	6	eeg	1	dq6BxQWM4Ds	Shot put	Participating_in_sports&Exercise&Recreation	Sports, Exercise, and Recreation	Participating in Sports, Exercise, or Recreation	Playing sports	169	1	True	True	True	True	0.677549900021404
video_on	action	6	eeg	1	006rAyzyAQo	Hurling	Participating_in_sports&Exercise&Recreation	Sports, Exercise, and Recreation	Participating in Sports, Exercise, or Recreation	Playing sports	323	1	True	True	True	True	0.7261603999941144
video_on	action	6	eeg	1	HBt6r9_jZvw	Canoeing	Participating_in_sports&Exercise&Recreation	Sports, Exercise, and Recreation	Participating in Sports, Exercise, or Recreation	Boating	292	1	True	True	False	False	0.0051225000061094
video_on	action	6	eeg	1	tm8nRJONsAE	Doing motocross	Participating_in_sports&Exercise&Recreation	Sports, Exercise, and Recreation	Participating in Sports, Exercise, or Recreation	Playing sports	243	1	True	True	True	True	0.9434328000061214
video_on	action	6	eeg	1	0BNhy2VqlRc	Drum corps	Arts&Entertainment	Socializing, Relaxing, and Leisure	Arts and Entertainment	Playing musical instruments	307	2	False	False	False	True	0.0
video_on	action	6	eeg	1	PacGMPjyg8M	Cleaning windows	Housework	Household Activities	Housework	Interior cleaning	143	6	True	False	False	True	0.0050710000214166
video_on	action	6	eeg	1	cxJTsFS83dg	Beer pong	Relaxing&Leisure	Socializing, Relaxing, and Leisure	Relaxing and Leisure	Playing games	280	3	True	False	False	True	0.0050875000015366
video_on	action	6	eeg	1	93CFpdnh2cs	Rock-paper-scissors	Relaxing&Leisure	Socializing, Relaxing, and Leisure	Relaxing and Leisure	Playing games	358	3	True	False	False	True	0.6858202999865171
video_on	action	6	eeg	1	31X7PlIfy_c	Clean and jerk	Participating_in_sports&Exercise&Recreation	Sports, Exercise, and Recreation	Participating in Sports, Exercise, or Recreation	Weightlifting	84	1	True	True	True	True	0.6814874999981839
video_on	action	6	eeg	1	lueERC_jdyQ	Washing dishes	Food&Drink_prep.&Presentation&Clean-up	Eating and drinking Activities	Food & Drink Prep., Presentation, & Clean-up	Kitchen and food clean-up	213	5	True	False	False	True	0.7580978999903891
video_on	action	6	eeg	1	WQF2Ushb20M	Preparing pasta	Food&Drink_prep.&Presentation&Clean-up	Eating and drinking Activities	Food & Drink Prep., Presentation, & Clean-up	Food and drink preparation	186	5	False	False	False	True	0.0
video_on	action	6	eeg	1	CGHh2-Ar_mw	Slacklining	Relaxing&Leisure	Socializing, Relaxing, and Leisure	Relaxing and Leisure	Playing games	371	3	True	False	False	True	0.0050713999953586
video_on	action	6	eeg	1	aGkLJs7gfmY	Playing piano	Arts&Entertainment	Socializing, Relaxing, and Leisure	Arts and Entertainment	Playing musical instruments	197	2	True	False	False	True	0.711265399993863
video_on	action	6	eeg	1	5JRqng_RZvw	Trimming branches or hedges	Lawn&Garden&Houseplants	Household Activities	Lawn, Garden, and Houseplants	Lawn, garden, and houseplant care	381	9	True	False	False	True	0.9342560000077356
video_on	action	6	eeg	1	ufbiU7lZXTk	Snatch	Participating_in_sports&Exercise&Recreation	Sports, Exercise, and Recreation	Participating in Sports, Exercise, or Recreation	Weightlifting	79	1	True	True	True	True	0.9731295999954456
video_on	action	6	eeg	1	ZBFSw0D3ce0	Getting a piercing	Grooming	Personal Care	Grooming	Washing, dressing and grooming	214	4	False	False	False	True	0.0
video_on	action	6	eeg	1	2mQFJ8R3YkE	Playing ice hockey	Participating_in_sports&Exercise&Recreation	Sports, Exercise, and Recreation	Participating in Sports, Exercise, or Recreation	Playing hockey	347	1	True	True	False	False	0.005152600002475
video_on	action	6	eeg	1	B5zOBty9JKM	Playing drums	Arts&Entertainment	Socializing, Relaxing, and Leisure	Arts and Entertainment	Playing musical instruments	346	2	True	False	False	True	0.0050709999923128
video_on	action	6	eeg	1	dO5bcJjf8tw	Hand car wash	Vehicles	Household Activities	Vehicles	Vehicle repair and maintenance (by self)	318	11	False	False	False	True	0.0
video_on	action	6	eeg	1	g-5eu7YQgzs	Brushing teeth	Grooming	Personal Care	Grooming	Washing, dressing and grooming oneself	148	4	True	False	True	False	0.005073899985291
video_on	action	6	eeg	1	UrBkufrnV3Q	Playing beach volleyball	Participating_in_sports&Exercise&Recreation	Sports, Exercise, and Recreation	Participating in Sports, Exercise, or Recreation	Playing volleyball	341	1	True	True	True	True	0.6344498999824282
video_on	action	6	eeg	1	5QLoz4zEcfk	Spinning	Participating_in_sports&Exercise&Recreation	Sports, Exercise, and Recreation	Participating in Sports, Exercise, or Recreation	Using cardiovascular equipment	117	1	True	True	True	True	0.8850657000148203
video_on	action	6	eeg	1	CxlNZO3dqTM	Cleaning sink	Interior_maintenance&Repair&Decoration	Household Activities	Interior Maintenance, Repair, & Decoration	Interior arrangement, decoration, & repairs	297	7	True	False	False	True	0.8064209000149276
video_on	action	6	eeg	1	kq4wxvJ1AWo	Swimming	Participating_in_sports&Exercise&Recreation	Sports, Exercise, and Recreation	Participating in Sports, Exercise, or Recreation	Participating in water sports	377	1	True	True	True	True	0.6717948000004981
video_on	action	6	eeg	1	CdQgllq4svk	Using the rowing machine	Participating_in_sports&Exercise&Recreation	Sports, Exercise, and Recreation	Participating in Sports, Exercise, or Recreation	Using cardiovascular equipment	384	1	True	True	True	True	0.8855604999989737
video_on	action	6	eeg	1	MsvcgJncyLo	Capoeira	Participating_in_sports&Exercise&Recreation	Sports, Exercise, and Recreation	Participating in Sports, Exercise, or Recreation	Participating in martial arts	294	1	True	True	True	True	0.7567150999966543
video_on	action	6	eeg	1	9S8AB0Q1Sbw	Playing pool	Relaxing&Leisure	Socializing, Relaxing, and Leisure	Relaxing and Leisure	Playing games	348	3	True	False	True	False	0.6568821999826469
video_on	action	6	eeg	1	pD7nVNK65wY	Playing violin	Arts&Entertainment	Socializing, Relaxing, and Leisure	Arts and Entertainment	Playing musical instruments	234	2	True	False	False	True	0.6283287999976892
video_on	action	6	eeg	1	W1ZkHc5xpmk	Tai chi	Participating_in_sports&Exercise&Recreation	Sports, Exercise, and Recreation	Participating in Sports, Exercise, or Recreation	Participating in martial arts	263	1	False	True	False	False	0.0
video_on	action	6	eeg	1	oLp6QzPAQPQ	Riding bumper cars	Relaxing&Leisure	Socializing, Relaxing, and Leisure	Relaxing and Leisure	Playing games	356	3	True	False	True	False	0.0050710999930743
video_on	action	6	eeg	1	PWtF0UvLjFc	Hitting a pinata	Relaxing&Leisure	Socializing, Relaxing, and Leisure	Relaxing and Leisure	Playing games	321	3	True	False	True	False	0.9823317999835126
video_on	action	6	eeg	1	LQ9UQpGF5DY	Bullfighting	Participating_in_sports&Exercise&Recreation	Sports, Exercise, and Recreation	Participating in Sports, Exercise, or Recreation	Participating in rodeo competitions	288	1	False	True	False	False	0.0
video_on	action	6	meg	2	HCOqt5AP3gw	Getting a piercing	Grooming	Personal Care	Grooming	Washing, dressing and grooming	214	4	True	False	False	True	0.4412816716246652
video_on	action	6	meg	2	zL7K3nkbP_o	Ballet	Arts&Entertainment	Socializing, Relaxing, and Leisure	Arts and Entertainment	Attending arts and entertainment	229	2	True	False	True	False	0.5381294138776411
video_on	action	6	meg	2	MHhq66fYLs0	Doing nails	Grooming	Personal Care	Grooming	Washing, dressing and grooming oneself	167	4	True	False	False	True	0.3963555462983095
video_on	action	6	meg	2	oYXWOzleo1Q	Doing kickboxing	Participating_in_sports&Exercise&Recreation	Sports, Exercise, and Recreation	Participating in Sports, Exercise, or Recreation	Participating in martial arts	70	1	True	True	True	True	0.4174977850425421
video_on	action	6	meg	2	-EvG0ynvM5A	Drum corps	Arts&Entertainment	Socializing, Relaxing, and Leisure	Arts and Entertainment	Playing musical instruments	307	2	True	False	False	True	0.7370263878010519
video_on	action	6	meg	2	WPolN2vgkqQ	Cricket	Participating_in_sports&Exercise&Recreation	Sports, Exercise, and Recreation	Participating in Sports, Exercise, or Recreation	Playing sports	82	1	True	True	True	True	0.3307345507673744
video_on	action	6	meg	2	c3oz4O3_ae8	Doing step aerobics	Participating_in_sports&Exercise&Recreation	Sports, Exercise, and Recreation	Participating in Sports, Exercise, or Recreation	Doing aerobics	230	1	True	True	True	True	0.5227223673703065
video_on	action	6	meg	2	BZ9-6Y79xKQ	Playing racquetball	Participating_in_sports&Exercise&Recreation	Sports, Exercise, and Recreation	Participating in Sports, Exercise, or Recreation	Playing racquet sports	253	1	True	True	True	True	0.7009920895461619
video_on	action	6	meg	2	bnXbZaesX8A	Cleaning shoes	Housework	Household Activities	Housework	Sewing, repairing, & maintaining textiles	134	6	True	False	False	True	0.3491159037703255
video_on	action	6	meg	2	o6q7f9bCdlU	Arm wrestling	Participating_in_sports&Exercise&Recreation	Sports, Exercise, and Recreation	Participating in Sports, Exercise, or Recreation	Wrestling	271	1	True	True	False	False	0.5725227570821971
video_on	action	6	meg	2	UbeaCK3gucA	Canoeing	Participating_in_sports&Exercise&Recreation	Sports, Exercise, and Recreation	Participating in Sports, Exercise, or Recreation	Boating	292	1	True	True	True	True	0.8015594506603065
video_on	action	6	meg	2	B1mQ7eGAChU	Hammer throw	Participating_in_sports&Exercise&Recreation	Sports, Exercise, and Recreation	Participating in Sports, Exercise, or Recreation	Playing sports	224	1	True	True	True	True	0.4828480048781784
video_on	action	6	meg	2	r-U9hz3C-Kc	Playing violin	Arts&Entertainment	Socializing, Relaxing, and Leisure	Arts and Entertainment	Playing musical instruments	234	2	True	False	False	True	0.3557603227575328
video_on	action	6	meg	2	IOh0sIf8LMA	Shot put	Participating_in_sports&Exercise&Recreation	Sports, Exercise, and Recreation	Participating in Sports, Exercise, or Recreation	Playing sports	169	1	True	True	True	True	0.3470876519340891
video_on	action	6	meg	2	mDaTYNznBNA	Rollerblading	Participating_in_sports&Exercise&Recreation	Sports, Exercise, and Recreation	Participating in Sports, Exercise, or Recreation	Playing sports	359	1	True	True	True	True	0.5712811735425021
video_on	action	6	meg	2	bDK9z12wb7Q	Rafting	Participating_in_sports&Exercise&Recreation	Sports, Exercise, and Recreation	Participating in Sports, Exercise, or Recreation	Boating	353	1	True	True	False	False	0.494284580124031
video_on	action	6	meg	2	CgTTdptQXb8	Kite flying	Relaxing&Leisure	Socializing, Relaxing, and Leisure	Relaxing and Leisure	Playing games	327	3	True	False	False	True	0.8517631361683016
video_on	action	6	meg	2	87MqS3E_FFk	Polishing forniture	Housework	Household Activities	Housework	Interior cleaning	156	6	True	False	True	False	0.658541584596378
video_on	action	6	meg	2	zMiLS4i5K9Y	Futsal	Participating_in_sports&Exercise&Recreation	Sports, Exercise, and Recreation	Participating in Sports, Exercise, or Recreation	Playing soccer	315	1	True	True	True	True	0.4048464925188
video_on	action	6	meg	2	fh55qldlqPM	Plataform diving	Participating_in_sports&Exercise&Recreation	Sports, Exercise, and Recreation	Participating in Sports, Exercise, or Recreation	Participating in water sports	233	1	True	True	True	True	0.6048643027374965
video_on	action	6	meg	2	ZwrFjZ3j2L0	Beer pong	Relaxing&Leisure	Socializing, Relaxing, and Leisure	Relaxing and Leisure	Playing games	280	3	True	False	False	True	0.358674557499171
video_on	action	6	meg	2	H4wAMTDd870	Archery	Participating_in_sports&Exercise&Recreation	Sports, Exercise, and Recreation	Participating in Sports, Exercise, or Recreation	Playing sports	250	1	True	True	True	True	0.6226527867709137
video_on	action	6	meg	2	T1UUU3xNisI	Baton twirling	Participating_in_sports&Exercise&Recreation	Sports, Exercise, and Recreation	Participating in Sports, Exercise, or Recreation	Playing sports	277	1	False	True	False	False	0.0
video_on	action	6	meg	2	7lcCU3Fy6S8	Longboarding	Participating_in_sports&Exercise&Recreation	Sports, Exercise, and Recreation	Participating in Sports, Exercise, or Recreation	Playing sports	331	1	True	True	True	True	0.0050955337103459
video_on	action	6	meg	2	2xm0LuM_WHQ	Putting on makeup	Grooming	Personal Care	Grooming	Washing, dressing and grooming oneself	76	4	True	False	False	True	0.6448766189564594
video_on	action	6	meg	2	N3PCVXOEvLk	Throwing darts	Relaxing&Leisure	Socializing, Relaxing, and Leisure	Relaxing and Leisure	Playing games	380	3	True	False	False	True	0.3593299131678122
video_on	action	6	meg	2	rnNrUASGrd4	Playing piano	Arts&Entertainment	Socializing, Relaxing, and Leisure	Arts and Entertainment	Playing musical instruments	197	2	True	False	False	True	0.5093973052232741
video_on	action	6	meg	2	UWTz7BR7EZs	Riding bumper cars	Relaxing&Leisure	Socializing, Relaxing, and Leisure	Relaxing and Leisure	Playing games	356	3	True	False	False	True	0.4215301392669062
video_on	action	6	meg	2	-g9XDEDcPQA	Braiding hair	Grooming	Personal Care	Grooming	Washing, dressing and grooming oneself	285	4	True	False	False	True	0.6244081498352898
video_on	action	6	meg	2	pka0k3iTRvo	Spinning	Participating_in_sports&Exercise&Recreation	Sports, Exercise, and Recreation	Participating in Sports, Exercise, or Recreation	Using cardiovascular equipment	117	1	True	True	False	False	0.6144184284444236
video_on	action	6	meg	2	udK--artFDg	Playing lacrosse	Participating_in_sports&Exercise&Recreation	Sports, Exercise, and Recreation	Participating in Sports, Exercise, or Recreation	Playing racquet sports	209	1	True	True	True	True	0.3200595887649342
video_on	action	6	meg	2	HfPGRA130kU	Using the rowing machine	Participating_in_sports&Exercise&Recreation	Sports, Exercise, and Recreation	Participating in Sports, Exercise, or Recreation	Using cardiovascular equipment	384	1	True	True	True	True	0.7048671704844764
video_on	action	6	meg	2	erBl-8NYILg	Tango	Arts&Entertainment	Socializing, Relaxing, and Leisure	Arts and Entertainment	Dancing	73	2	True	False	False	True	0.3349818350864098
video_on	action	6	meg	2	aE83fKtAm5Q	Hurling	Participating_in_sports&Exercise&Recreation	Sports, Exercise, and Recreation	Participating in Sports, Exercise, or Recreation	Playing sports	323	1	True	True	False	False	0.5662303163126126
video_on	action	6	meg	2	H6ZSCvu4_Hk	Waxing skis	Appliances&Tools&Toys	Household Activities	Appliances, Tools, and Toys	Appliance, tool, and toy set-up, repair, & maintenance (by self)	387	10	True	False	False	True	0.4573205280880756
video_on	action	6	meg	2	S7QpPbYFvJw	Polishing shoes	Housework	Household Activities	Housework	Sewing, repairing, & maintaining textiles	227	6	True	False	False	True	0.9922075765875888
video_on	action	6	meg	2	wkaoXIOWTsA	Rock climbing	Participating_in_sports&Exercise&Recreation	Sports, Exercise, and Recreation	Participating in Sports, Exercise, or Recreation	Climbing, spelunking, caving	188	1	True	True	True	True	0.3900706522313157
video_on	action	6	meg	2	WiGoVhMaCEE	Shuffleboard	Relaxing&Leisure	Socializing, Relaxing, and Leisure	Relaxing and Leisure	Playing games	368	3	True	False	False	True	0.4635698017179948
video_on	action	6	meg	2	W2aw9GWJLGA	Brushing teeth	Grooming	Personal Care	Grooming	Washing, dressing and grooming oneself	148	4	True	False	False	True	0.3439005284201357
video_on	action	6	meg	2	4FMVgTm4lfY	BMX	Participating_in_sports&Exercise&Recreation	Sports, Exercise, and Recreation	Participating in Sports, Exercise, or Recreation	Biking	274	1	True	True	True	True	0.3520666645536039
video_on	action	6	meg	2	q9HfRIdRviQ	Playing saxophone	Arts&Entertainment	Socializing, Relaxing, and Leisure	Arts and Entertainment	Playing musical instruments	109	2	True	False	False	True	0.3995414623395845
video_on	action	6	meg	2	qW5DBXPww10	Making a sandwich	Food&Drink_prep.&Presentation&Clean-up	Eating and drinking Activities	Food & Drink Prep., Presentation, & Clean-up	Food and drink preparation	129	5	True	False	False	True	0.4556786674334034
video_on	action	6	meg	2	YGIObbTNt7I	Smoking hookah	Relaxing&Leisure	Socializing, Relaxing, and Leisure	Relaxing and Leisure	Tobacco and drug use	189	3	True	False	False	True	0.8565030692441269
video_on	action	6	meg	2	WZiE6FZCOk8	Beach soccer	Participating_in_sports&Exercise&Recreation	Sports, Exercise, and Recreation	Participating in Sports, Exercise, or Recreation	Playing soccer	278	1	True	True	False	False	0.4586934242558982
video_on	action	6	meg	2	8uSLtR5SFZw	Running a marathon	Participating_in_sports&Exercise&Recreation	Sports, Exercise, and Recreation	Participating in Sports, Exercise, or Recreation	Running	362	1	True	True	False	False	0.3768593943618725
video_on	action	6	meg	2	zVUkujSuXpM	Preparing pasta	Food&Drink_prep.&Presentation&Clean-up	Eating and drinking Activities	Food & Drink Prep., Presentation, & Clean-up	Food and drink preparation	186	5	True	False	False	True	0.665204417538007
video_on	action	6	meg	2	rCy4LSf0Ds8	Using the pommel horse	Participating_in_sports&Exercise&Recreation	Sports, Exercise, and Recreation	Participating in Sports, Exercise, or Recreation	Doing gymnastics	114	1	True	True	True	True	0.3529435914153964
video_on	action	6	meg	2	WqGq9OKI3xI	Slacklining	Relaxing&Leisure	Socializing, Relaxing, and Leisure	Relaxing and Leisure	Playing games	371	3	True	False	False	True	0.3687177095455354
video_on	action	6	meg	2	Szlj3WasWOg	Drinking coffee	Food&Drink_prep.&Presentation&Clean-up	Eating and drinking Activities	Food & Drink Prep., Presentation, & Clean-up	Eating and Drinking	68	5	True	False	False	True	0.5234703965491008
video_on	action	6	meg	2	Uqfw5U9ntEQ	Snow tubing	Participating_in_sports&Exercise&Recreation	Sports, Exercise, and Recreation	Participating in Sports, Exercise, or Recreation	Skiing, ice skating, snowboarding	372	1	True	True	False	False	0.4409903688979284
video_on	action	6	meg	2	DvRWaiTgdFY	Ironing clothes	Housework	Household Activities	Housework	Laundry	83	6	True	False	False	True	0.6731366058854746
video_on	action	6	meg	2	RZ8r5B69CLY	Volleyball	Participating_in_sports&Exercise&Recreation	Sports, Exercise, and Recreation	Participating in Sports, Exercise, or Recreation	Playing volleyball	123	1	True	True	True	True	0.7612872259978758
video_on	action	6	meg	2	HE0EZhtaoGw	Bathing dog	Animals&Pets	Household Activities	Animals and Pets	Care for animals and pets (not veterinary care)	90	8	True	False	False	True	0.3561418840495207
video_on	action	6	meg	2	28VmUxTDU5Q	Playing guitarra	Arts&Entertainment	Socializing, Relaxing, and Leisure	Arts and Entertainment	Playing musical instruments	251	2	True	False	False	True	0.5636170440773185
video_on	action	6	meg	2	vajtNYawgc4	Playing water polo	Participating_in_sports&Exercise&Recreation	Sports, Exercise, and Recreation	Participating in Sports, Exercise, or Recreation	Participating in water sports	130	1	True	True	False	False	0.3616974647607094
video_on	action	6	meg	2	3ur8dz0i184	Putting on shoes	Grooming	Personal Care	Grooming	Washing, dressing and grooming oneself	352	4	True	False	False	True	0.3544921748239176
video_on	action	6	meg	2	ljko5Z2gekg	Wakeboarding	Participating_in_sports&Exercise&Recreation	Sports, Exercise, and Recreation	Participating in Sports, Exercise, or Recreation	Participating in water sports	385	1	True	True	False	False	0.3948075666260138
video_on	action	6	meg	2	ip0YIyJ85OM	Javelin throw	Participating_in_sports&Exercise&Recreation	Sports, Exercise, and Recreation	Participating in Sports, Exercise, or Recreation	Playing sports	116	1	True	True	True	True	0.4420997342051578
video_on	action	6	meg	2	1ZfB1iSZdSs	Knitting	Housework	Household Activities	Housework	Sewing, repairing, & maintaining textiles	329	6	True	False	False	True	0.8024249065340427
video_on	action	6	meg	2	xDtNacvXkiU	Belly dance	Arts&Entertainment	Socializing, Relaxing, and Leisure	Arts and Entertainment	Dancing	247	2	True	False	False	True	0.4184465565149367
video_on	action	6	meg	2	haiViZ7dXwc	Wrapping presents	Household_management	Household Activities	Household Management	Household & personal organization and planning	179	13	True	False	False	True	0.6266643120952722
video_on	action	6	meg	2	eLQ1hPI97s8	Surfing	Participating_in_sports&Exercise&Recreation	Sports, Exercise, and Recreation	Participating in Sports, Exercise, or Recreation	Participating in water sports	376	1	True	True	False	False	0.2828857383919967
video_on	action	6	meg	2	24dpU7mX0Jo	Mixing drinks	Food&Drink_prep.&Presentation&Clean-up	Eating and drinking Activities	Food & Drink Prep., Presentation, & Clean-up	Food and drink preparation	244	5	True	False	False	True	0.621177859181671
video_on	action	6	meg	2	pipmaN-WNN8	Cleaning windows	Housework	Household Activities	Housework	Interior cleaning	143	6	True	False	False	True	0.6738417697922614
video_on	action	6	meg	2	tOxFWbcfKTg	Springboard diving	Participating_in_sports&Exercise&Recreation	Sports, Exercise, and Recreation	Participating in Sports, Exercise, or Recreation	Participating in water sports	193	1	True	True	True	True	0.9070569217601588
video_on	action	6	meg	2	fTm10uz5L9s	Ice fishing	Participating_in_sports&Exercise&Recreation	Sports, Exercise, and Recreation	Participating in Sports, Exercise, or Recreation	Fishing	324	1	True	True	False	False	0.4136088181712694
video_on	action	6	meg	2	PYAv5miD-ec	Playing ice hockey	Participating_in_sports&Exercise&Recreation	Sports, Exercise, and Recreation	Participating in Sports, Exercise, or Recreation	Playing hockey	347	1	True	True	True	True	0.364584531372202
video_on	action	6	meg	2	DKDQ-rquUhg	Camel ride	Participating_in_sports&Exercise&Recreation	Sports, Exercise, and Recreation	Participating in Sports, Exercise, or Recreation	Playing sports	291	1	True	True	False	False	0.3579358862320987
video_on	action	6	meg	2	2pvjBvQac9Q	Playing congas	Arts&Entertainment	Socializing, Relaxing, and Leisure	Arts and Entertainment	Playing musical instruments	345	2	True	False	False	True	0.3719326049256324
video_on	action	6	meg	2	38qG7VDRrBY	Tug of war	Relaxing&Leisure	Socializing, Relaxing, and Leisure	Relaxing and Leisure	Playing games	382	3	True	False	True	False	0.3146721485916259
video_on	action	6	meg	2	USR538t5zME	Shaving	Grooming	Personal Care	Grooming	Washing, dressing and grooming oneself	190	4	True	False	False	True	0.3322955107685175
video_on	action	6	meg	2	66e5TurrbVI	Hand car wash	Vehicles	Household Activities	Vehicles	Vehicle repair and maintenance (by self)	318	11	True	False	False	True	0.6842106375304411
video_on	action	6	meg	2	PSKCra6rOCQ	Windsurfing	Participating_in_sports&Exercise&Recreation	Sports, Exercise, and Recreation	Participating in Sports, Exercise, or Recreation	Participating in water sports	237	1	True	True	True	True	0.3325578341566597
video_on	action	6	meg	2	5BkG6rzSTYU	Cutting the grass	Lawn&Garden&Houseplants	Household Activities	Lawn, Garden, and Houseplants	Lawn, garden, and houseplant care	301	9	True	False	False	True	0.2766512562996013
video_on	action	6	meg	2	d2GgXcTf6SE	Cleaning sink	Interior_maintenance&Repair&Decoration	Household Activities	Interior Maintenance, Repair, & Decoration	Interior arrangement, decoration, & repairs	297	7	True	False	False	True	0.6368076843546078
video_on	action	6	meg	2	lL4UdTmQ_U4	Scuba diving	Participating_in_sports&Exercise&Recreation	Sports, Exercise, and Recreation	Participating in Sports, Exercise, or Recreation	Participating in water sports	364	1	True	True	False	False	0.5799203370054329
video_on	action	6	meg	2	vWWzgNkxffc	Playing kickball	Participating_in_sports&Exercise&Recreation	Sports, Exercise, and Recreation	Participating in Sports, Exercise, or Recreation	Playing sports	257	1	True	True	True	True	0.9752718699671732
video_on	action	6	meg	2	LvIrrYg7PD0	Carving jack-o-lanterns	Interior_maintenance&Repair&Decoration	Household Activities	Interior Maintenance, Repair, & Decoration	Interior arrangement, decoration, & repairs	295	7	True	False	False	True	0.4933469777718073
video_on	action	6	meg	2	gGJn9m5DONE	Disc dog	Animals&Pets	Household Activities	Animals and Pets	Walking / exercising / playing with animals	303	8	True	False	False	True	0.629455988384052
video_on	action	6	meg	2	dN938S_W-Vk	High jump	Participating_in_sports&Exercise&Recreation	Sports, Exercise, and Recreation	Participating in Sports, Exercise, or Recreation	Playing sports	195	1	True	True	True	True	0.8077761225345057
video_on	action	6	meg	2	9gPwJuXB1Wc	Discus throw	Participating_in_sports&Exercise&Recreation	Sports, Exercise, and Recreation	Participating in Sports, Exercise, or Recreation	Playing sports	92	1	True	True	True	True	0.8364704976747817
video_on	action	6	meg	2	l9AksDDtREE	Painting furniture	Interior_maintenance&Repair&Decoration	Household Activities	Interior Maintenance, Repair, & Decoration	Building and repairing furniture	337	7	True	False	False	True	0.2860055453172663
video_on	action	6	meg	2	tUHvNgokUys	Hula hoop	Relaxing&Leisure	Socializing, Relaxing, and Leisure	Relaxing and Leisure	Playing games	322	3	True	False	False	True	0.3341184922894626
video_on	action	6	meg	2	dA6lyHUy9gE	Welding	Appliances&Tools&Toys	Household Activities	Appliances, Tools, and Toys	Appliance, tool, and toy set-up, repair, & maintenance (by self)	388	10	True	False	False	True	0.4165278828027112
video_on	action	6	meg	2	eG_Hpsx28_I	Building sandcastles	Arts&Entertainment	Socializing, Relaxing, and Leisure	Arts and Entertainment	Beach activities	286	2	True	False	False	True	0.2457595831804155
video_on	action	6	meg	2	xqcXIO55r8s	Grooming dog	Animals&Pets	Household Activities	Animals and Pets	Care for animals and pets (not veterinary care)	317	8	True	False	True	False	0.8706543444104682
video_on	action	6	meg	2	p_M3buk9nyg	Playing badminton	Participating_in_sports&Exercise&Recreation	Sports, Exercise, and Recreation	Participating in Sports, Exercise, or Recreation	Playing racquet sports	268	1	True	True	True	True	0.8328867194632039
video_on	action	6	meg	2	qG3yh2SdRWg	Trimming branches or hedges	Lawn&Garden&Houseplants	Household Activities	Lawn, Garden, and Houseplants	Lawn, garden, and houseplant care	381	9	True	False	False	True	0.4140625259417447
video_on	action	6	meg	2	gcrcASH3KqE	Zumba	Participating_in_sports&Exercise&Recreation	Sports, Exercise, and Recreation	Participating in Sports, Exercise, or Recreation	Doing aerobics	69	1	True	True	False	False	0.6777938270990944
video_on	action	6	meg	2	4hSGNEPm0JE	Hand washing clothes	Housework	Household Activities	Housework	Laundry	232	6	False	False	False	True	0.0
video_on	action	6	eeg	2	diBZlwUO8rc	Sharpening knives	Appliances&Tools&Toys	Household Activities	Appliances, Tools, and Toys	Appliance, tool, and toy set-up, repair, & maintenance (by self)	365	10	True	False	False	True	0.7902722000144422
video_on	action	6	eeg	2	Vl9zODoJMIU	Polishing forniture	Housework	Household Activities	Housework	Interior cleaning	156	6	True	False	False	True	0.7408140000188723
video_on	action	6	eeg	2	zGDDCwZ5R0I	Playing polo	Participating_in_sports&Exercise&Recreation	Sports, Exercise, and Recreation	Participating in Sports, Exercise, or Recreation	Participating in equestrian sports	75	1	True	True	True	True	0.6659444999822881
video_on	action	6	eeg	2	s5T-K9OcP1s	Cutting the grass	Lawn&Garden&Houseplants	Household Activities	Lawn, Garden, and Houseplants	Lawn, garden, and houseplant care	301	9	True	False	False	True	0.767607699992368
video_on	action	6	eeg	2	8WHTSXzRY0g	Doing nails	Grooming	Personal Care	Grooming	Washing, dressing and grooming oneself	167	4	True	False	False	True	0.5322319999977481
video_on	action	6	eeg	2	uO1hbcP89z8	Plataform diving	Participating_in_sports&Exercise&Recreation	Sports, Exercise, and Recreation	Participating in Sports, Exercise, or Recreation	Participating in water sports	233	1	True	True	True	True	0.8080518999777269
video_on	action	6	eeg	2	aHGPJIvLO7s	Making a lemonade	Food&Drink_prep.&Presentation&Clean-up	Eating and drinking Activities	Food & Drink Prep., Presentation, & Clean-up	Food and drink preparation	333	5	True	False	False	True	0.97223389998544
video_on	action	6	eeg	2	4_9g5M8AV38	Cleaning shoes	Housework	Household Activities	Housework	Sewing, repairing, & maintaining textiles	134	6	True	False	False	True	0.7207227000035346
video_on	action	6	eeg	2	3ONB0KR01kU	Shaving	Grooming	Personal Care	Grooming	Washing, dressing and grooming oneself	190	4	True	False	False	True	0.886801699991338
video_on	action	6	eeg	2	47mv9ITjEcg	Rope skipping	Participating_in_sports&Exercise&Recreation	Sports, Exercise, and Recreation	Participating in Sports, Exercise, or Recreation	Working out	361	1	True	True	True	True	0.7113876999937929
video_on	action	6	eeg	2	N-JZkL-gvcA	Grooming dog	Animals&Pets	Household Activities	Animals and Pets	Care for animals and pets (not veterinary care)	317	8	True	False	False	True	0.8002425000013318
video_on	action	6	eeg	2	q1ROw3UwDnw	Snowboarding	Participating_in_sports&Exercise&Recreation	Sports, Exercise, and Recreation	Participating in Sports, Exercise, or Recreation	Skiing, ice skating, snowboarding	373	1	True	True	False	False	0.9725488999974914
video_on	action	6	eeg	2	WrZc3HadYV8	Calf roping	Participating_in_sports&Exercise&Recreation	Sports, Exercise, and Recreation	Participating in Sports, Exercise, or Recreation	Participating in rodeo competitions	290	1	True	True	True	True	0.6180565000104252
video_on	action	6	eeg	2	aimomoU0BRM	Longboarding	Participating_in_sports&Exercise&Recreation	Sports, Exercise, and Recreation	Participating in Sports, Exercise, or Recreation	Playing sports	331	1	True	True	True	True	0.6312249000184238
video_on	action	6	eeg	2	6bt6VtUPyNA	Kneeling	Participating_in_sports&Exercise&Recreation	Sports, Exercise, and Recreation	Participating in Sports, Exercise, or Recreation	Working out	328	1	True	True	False	False	0.8652933999837842
video_on	action	6	eeg	2	Fns-e40eRFU	Having an ice cream	Food&Drink_prep.&Presentation&Clean-up	Eating and drinking Activities	Food & Drink Prep., Presentation, & Clean-up	Eating and Drinking	320	5	True	False	False	True	0.4945873999968171
video_on	action	6	eeg	2	V2WJySoboqw	Tango	Arts&Entertainment	Socializing, Relaxing, and Leisure	Arts and Entertainment	Dancing	73	2	True	False	False	True	0.8377305000030901
video_on	action	6	eeg	2	AlIWRmlgpXo	Bathing dog	Animals&Pets	Household Activities	Animals and Pets	Care for animals and pets (not veterinary care)	90	8	True	False	False	True	0.6854941999772564
video_on	action	6	eeg	2	Cw1OoRhKmaM	Long jump	Participating_in_sports&Exercise&Recreation	Sports, Exercise, and Recreation	Participating in Sports, Exercise, or Recreation	Playing sports	80	1	True	True	True	True	0.9077971999940928
video_on	action	6	eeg	2	a5P5EyIPBGM	Using the balance beam	Participating_in_sports&Exercise&Recreation	Sports, Exercise, and Recreation	Participating in Sports, Exercise, or Recreation	Doing gymnastics	180	1	True	True	False	False	0.5742715999949723
video_on	action	6	eeg	2	72p_RYSzHyI	Rollerblading	Participating_in_sports&Exercise&Recreation	Sports, Exercise, and Recreation	Participating in Sports, Exercise, or Recreation	Playing sports	359	1	True	True	True	True	0.884853600000497
video_on	action	6	eeg	2	VXfp5ORGXmU	Playing field hockey	Participating_in_sports&Exercise&Recreation	Sports, Exercise, and Recreation	Participating in Sports, Exercise, or Recreation	Playing hockey	94	1	True	True	True	True	0.8030985000077635
video_on	action	6	eeg	2	jdA5JEfPx6M	Belly dance	Arts&Entertainment	Socializing, Relaxing, and Leisure	Arts and Entertainment	Dancing	247	2	True	False	False	True	0.9582905000133906
video_on	action	6	eeg	2	MG6sxZKQeOc	Painting fence	Exterior_maintenance&Repair&Decoration	Household Activities	Exterior Maintenance, Repair, & Decoration	Painting fence	336	12	True	False	False	True	0.8533039000176359
video_on	action	6	eeg	2	TdFPN7MS99E	Starting a campfire	Participating_in_sports&Exercise&Recreation	Sports, Exercise, and Recreation	Participating in Sports, Exercise, or Recreation	Playing sports	153	1	True	True	False	False	0.7182456000009552
video_on	action	6	eeg	2	FtyrKb93RKw	Tug of war	Relaxing&Leisure	Socializing, Relaxing, and Leisure	Relaxing and Leisure	Playing games	382	3	True	False	True	False	0.7310766000009608
video_on	action	6	eeg	2	88hlxO-38m0	Waxing skis	Appliances&Tools&Toys	Household Activities	Appliances, Tools, and Toys	Appliance, tool, and toy set-up, repair, & maintenance (by self)	387	10	True	False	False	True	0.7034925000043586
video_on	action	6	eeg	2	MFGzwtLM89o	Polishing shoes	Housework	Household Activities	Housework	Sewing, repairing, & maintaining textiles	227	6	True	False	False	True	0.6811561000067741
video_on	action	6	eeg	2	ARyq5-zmtKU	Paintball	Participating_in_sports&Exercise&Recreation	Sports, Exercise, and Recreation	Participating in Sports, Exercise, or Recreation	Playing sports	141	1	True	True	False	False	0.6398404999927152
video_on	action	6	eeg	2	SiRxWKaP9Jo	Tumbling	Participating_in_sports&Exercise&Recreation	Sports, Exercise, and Recreation	Participating in Sports, Exercise, or Recreation	Doing gymnastics	258	1	True	True	True	True	0.8336460999853443
video_on	action	6	eeg	2	ycqVAqEHkdo	Waterskiing	Participating_in_sports&Exercise&Recreation	Sports, Exercise, and Recreation	Participating in Sports, Exercise, or Recreation	Participating in water sports	386	1	True	True	True	True	0.5836717000056524
video_on	action	6	eeg	2	CsL95ko079c	Brushing hair	Grooming	Personal Care	Grooming	Washing, dressing and grooming oneself	125	4	True	False	False	True	0.7994101999793202
video_on	action	6	eeg	2	kn_khzWo88I	Wakeboarding	Participating_in_sports&Exercise&Recreation	Sports, Exercise, and Recreation	Participating in Sports, Exercise, or Recreation	Participating in water sports	385	1	True	True	True	True	0.917154599999776
video_on	action	6	eeg	2	-ES1LsNmGpY	Futsal	Participating_in_sports&Exercise&Recreation	Sports, Exercise, and Recreation	Participating in Sports, Exercise, or Recreation	Playing soccer	315	1	True	True	True	True	0.8376437999831978
video_on	action	6	eeg	2	jLsU7i3-9ZU	Skateboarding	Participating_in_sports&Exercise&Recreation	Sports, Exercise, and Recreation	Participating in Sports, Exercise, or Recreation	Playing sports	176	1	True	True	True	True	2.169120199978352
video_on	action	6	eeg	2	CYsvoaI8xlM	Doing fencing	Participating_in_sports&Exercise&Recreation	Sports, Exercise, and Recreation	Participating in Sports, Exercise, or Recreation	Fencing	309	1	True	True	True	True	0.7813222999975551
video_on	action	6	eeg	2	dqn_JhUreDw	Playing rubik cube	Relaxing&Leisure	Socializing, Relaxing, and Leisure	Relaxing and Leisure	Playing games	349	3	True	False	False	True	0.8640592999872752
video_on	action	6	eeg	2	it4EZ5OzsfU	Vacuuming floor	Housework	Household Activities	Housework	Interior cleaning	160	6	False	False	False	True	0.0
video_on	action	6	eeg	2	tYS8t_G1CRM	Disc dog	Animals&Pets	Household Activities	Animals and Pets	Walking / exercising / playing with animals	303	8	True	False	False	True	0.0050705000176094
video_on	action	6	eeg	2	xUtp-Fq3cVM	Cheerleading	Arts&Entertainment	Socializing, Relaxing, and Leisure	Arts and Entertainment	Dancing	140	2	True	False	False	True	0.7973272000090219
video_on	action	6	eeg	2	5Gcvq7EPNv0	Using uneven bars	Participating_in_sports&Exercise&Recreation	Sports, Exercise, and Recreation	Participating in Sports, Exercise, or Recreation	Doing gymnastics	192	1	True	True	True	True	0.6940769999928307
video_on	action	6	eeg	2	t1yJReJUF70	Playing badminton	Participating_in_sports&Exercise&Recreation	Sports, Exercise, and Recreation	Participating in Sports, Exercise, or Recreation	Playing racquet sports	268	1	True	True	True	True	0.7403373999986798
video_on	action	6	eeg	2	13MnO0vx-bQ	Putting on makeup	Grooming	Personal Care	Grooming	Washing, dressing and grooming oneself	76	4	True	False	False	True	0.7226338000036776
video_on	action	6	eeg	2	ac2BvbnpH90	Painting	Interior_maintenance&Repair&Decoration	Household Activities	Interior Maintenance, Repair, & Decoration	Interior arrangement, decoration, & repairs	217	7	True	False	False	True	0.6954429000033997
video_on	action	6	eeg	2	wUZci1wNRJ4	Playing guitarra	Arts&Entertainment	Socializing, Relaxing, and Leisure	Arts and Entertainment	Playing musical instruments	251	2	True	False	False	True	0.545172599988291
video_on	action	6	eeg	2	D9hClOxrjeM	Mixing drinks	Food&Drink_prep.&Presentation&Clean-up	Eating and drinking Activities	Food & Drink Prep., Presentation, & Clean-up	Food and drink preparation	244	5	True	False	False	True	0.0050659999833442
video_on	action	6	eeg	2	lWDUnYKf5r0	Knitting	Housework	Household Activities	Housework	Sewing, repairing, & maintaining textiles	329	6	True	False	False	True	0.7043505999899935
video_on	action	6	eeg	2	7Xl0K-revJc	Playing saxophone	Arts&Entertainment	Socializing, Relaxing, and Leisure	Arts and Entertainment	Playing musical instruments	109	2	True	False	False	True	0.749692999990657
video_on	action	6	eeg	2	1R4G59PY7IY	Using parallel bars	Participating_in_sports&Exercise&Recreation	Sports, Exercise, and Recreation	Participating in Sports, Exercise, or Recreation	Doing gymnastics	88	1	True	True	True	True	0.9450436999904924
video_on	action	6	eeg	2	12CUawAe6iA	Shuffleboard	Relaxing&Leisure	Socializing, Relaxing, and Leisure	Relaxing and Leisure	Playing games	368	3	True	False	False	True	0.9893586999969556
video_on	action	6	eeg	2	1AGq_XG9VLU	BMX	Participating_in_sports&Exercise&Recreation	Sports, Exercise, and Recreation	Participating in Sports, Exercise, or Recreation	Biking	274	1	False	True	False	False	0.0
video_on	action	6	eeg	2	c2XNBQtVINs	Ironing clothes	Housework	Household Activities	Housework	Laundry	83	6	True	False	False	True	0.0050905000243801
video_on	action	6	eeg	2	9cHHA1wmv9s	High jump	Participating_in_sports&Exercise&Recreation	Sports, Exercise, and Recreation	Participating in Sports, Exercise, or Recreation	Playing sports	195	1	True	True	True	True	0.0050835000001825
video_on	action	6	eeg	2	LpidNQE8zr0	Skiing	Participating_in_sports&Exercise&Recreation	Sports, Exercise, and Recreation	Participating in Sports, Exercise, or Recreation	Skiing, ice skating, snowboarding	369	1	True	True	True	True	0.8116142999788281
video_on	action	6	eeg	2	ChJn4sNH33E	Scuba diving	Participating_in_sports&Exercise&Recreation	Sports, Exercise, and Recreation	Participating in Sports, Exercise, or Recreation	Participating in water sports	364	1	True	True	False	False	1.098215000005439
video_on	action	6	eeg	2	imV5RwB3t9E	Doing kickboxing	Participating_in_sports&Exercise&Recreation	Sports, Exercise, and Recreation	Participating in Sports, Exercise, or Recreation	Participating in martial arts	70	1	True	True	True	True	0.6541820999991614
video_on	action	6	eeg	2	gC4z-xLY9QI	Preparing salad	Food&Drink_prep.&Presentation&Clean-up	Eating and drinking Activities	Food & Drink Prep., Presentation, & Clean-up	Food and drink preparation	96	5	True	False	False	True	0.858029399998486
video_on	action	6	eeg	2	GrSN0GGO0Vw	Using the monkey bar	Arts&Entertainment	Socializing, Relaxing, and Leisure	Arts and Entertainment	Park activities	383	2	True	False	True	False	0.9798357999825384
video_on	action	6	eeg	2	Oew-GdWnCLk	Smoking hookah	Relaxing&Leisure	Socializing, Relaxing, and Leisure	Relaxing and Leisure	Tobacco and drug use	189	3	True	False	False	True	0.7187792000186164
video_on	action	6	eeg	2	GmLqWpLqrIE	Javelin throw	Participating_in_sports&Exercise&Recreation	Sports, Exercise, and Recreation	Participating in Sports, Exercise, or Recreation	Playing sports	116	1	True	True	True	True	0.7459425999841187
video_on	action	6	eeg	2	XpPia4WDreE	Drinking coffee	Food&Drink_prep.&Presentation&Clean-up	Eating and drinking Activities	Food & Drink Prep., Presentation, & Clean-up	Eating and Drinking	68	5	True	False	False	True	0.674333500006469
video_on	action	6	eeg	2	qNaS6Swn2H8	Blow-drying hair	Grooming	Personal Care	Grooming	Washing, dressing and grooming oneself	281	4	False	False	False	True	0.0
video_on	action	6	eeg	2	v_48Ty7saSU	Playing water polo	Participating_in_sports&Exercise&Recreation	Sports, Exercise, and Recreation	Participating in Sports, Exercise, or Recreation	Participating in water sports	130	1	True	True	True	True	0.8366570000071079
video_on	action	6	eeg	2	FXneVvTRX6M	Hand washing clothes	Housework	Household Activities	Housework	Laundry	232	6	True	False	False	True	0.7045706999779213
video_on	action	6	eeg	2	FM-Qf1wHfmg	Rock climbing	Participating_in_sports&Exercise&Recreation	Sports, Exercise, and Recreation	Participating in Sports, Exercise, or Recreation	Climbing, spelunking, caving	188	1	True	True	True	True	1.010380499996245
video_on	action	6	eeg	2	Ux4brKS0Sac	Wrapping presents	Household_management	Household Activities	Household Management	Household & personal organization and planning	179	13	True	False	False	True	0.7691721000010148
video_on	action	6	eeg	2	NH8baAzuqtE	Breakdancing	Arts&Entertainment	Socializing, Relaxing, and Leisure	Arts and Entertainment	Dancing	236	2	False	False	False	True	0.0
video_on	action	6	eeg	2	-8rtdLeKico	Cricket	Participating_in_sports&Exercise&Recreation	Sports, Exercise, and Recreation	Participating in Sports, Exercise, or Recreation	Playing sports	82	1	True	True	True	True	0.0051583000167738
video_on	action	6	eeg	2	EB8lbZs1ayU	Walking the dog	Animals&Pets	Household Activities	Animals and Pets	Walking / exercising / playing with animals	221	8	True	False	False	True	0.8119007000059355
video_on	action	6	eeg	2	C3Uu4eYJY6c	Plastering	Interior_maintenance&Repair&Decoration	Household Activities	Interior Maintenance, Repair, & Decoration	Interior arrangement, decoration, & repairs	340	7	True	False	False	True	1.031503200007137
video_on	action	6	eeg	2	tuaCQsGhV1E	Getting a tattoo	Grooming	Personal Care	Grooming	Washing, dressing and grooming	187	4	False	False	False	True	0.0
video_on	action	6	eeg	2	vTCrcYnYuzw	Baking cookies	Food&Drink_prep.&Presentation&Clean-up	Eating and drinking Activities	Food & Drink Prep., Presentation, & Clean-up	Food and drink preparation	276	5	True	False	False	True	0.005187200004002
video_on	action	6	eeg	2	L-n0m6jMOCE	Assembling bicycle	Vehicles	Household Activities	Vehicles	Vehicle repair and maintenance (by self)	273	11	True	False	False	True	0.0051954000082332
video_on	action	6	eeg	2	RsDW2L-A3L4	Table soccer	Relaxing&Leisure	Socializing, Relaxing, and Leisure	Relaxing and Leisure	Playing games	379	3	True	False	False	True	0.7378475999867078
video_on	action	6	eeg	2	6CQ5Vddrn1s	Mooping floor	Housework	Household Activities	Housework	Interior cleaning	335	6	True	False	False	True	0.6691543999768328
video_on	action	6	eeg	2	2dBk9b3i3_Y	Triple jump	Participating_in_sports&Exercise&Recreation	Sports, Exercise, and Recreation	Participating in Sports, Exercise, or Recreation	Playing sports	155	1	True	True	True	True	0.5437002000107896
video_on	action	6	eeg	2	zsXNyJJjhj0	Hanging wallpaper	Interior_maintenance&Repair&Decoration	Household Activities	Interior Maintenance, Repair, & Decoration	Interior arrangement, decoration, & repairs	319	7	True	False	False	True	0.5986056000110693
video_on	action	6	eeg	2	eywpHXQ-eWY	Ballet	Arts&Entertainment	Socializing, Relaxing, and Leisure	Arts and Entertainment	Attending arts and entertainment	229	2	True	False	False	True	0.7028458999993745
video_on	action	6	eeg	2	A3jrRnmWYso	Ice fishing	Participating_in_sports&Exercise&Recreation	Sports, Exercise, and Recreation	Participating in Sports, Exercise, or Recreation	Fishing	324	1	True	True	False	False	0.975124299991876
video_on	action	6	eeg	2	LHHSSMIfYgs	Sumo	Participating_in_sports&Exercise&Recreation	Sports, Exercise, and Recreation	Participating in Sports, Exercise, or Recreation	Wrestling	375	1	True	True	True	True	0.7631731999863405
video_on	action	6	eeg	2	dUii8kVHqi8	Putting in contact lenses	Grooming	Personal Care	Grooming	Washing, dressing and grooming oneself	351	4	True	False	False	True	0.7762536999944132
video_on	action	6	eeg	2	bUVZOXxwsFk	Throwing darts	Relaxing&Leisure	Socializing, Relaxing, and Leisure	Relaxing and Leisure	Playing games	380	3	True	False	True	False	0.8965827999927569
video_on	action	6	eeg	2	TTfMdbLfApQ	Playing accordion	Arts&Entertainment	Socializing, Relaxing, and Leisure	Arts and Entertainment	Playing musical instruments	267	2	True	False	False	True	0.9802472000010312
video_on	action	6	eeg	2	QHZqab1K-Ic	Doing step aerobics	Participating_in_sports&Exercise&Recreation	Sports, Exercise, and Recreation	Participating in Sports, Exercise, or Recreation	Doing aerobics	230	1	False	True	False	False	0.0
video_on	action	6	eeg	2	aSOIK3byB_4	Playing racquetball	Participating_in_sports&Exercise&Recreation	Sports, Exercise, and Recreation	Participating in Sports, Exercise, or Recreation	Playing racquet sports	253	1	True	True	True	True	0.0051792000012937
video_on	action	6	eeg	2	Iv-BylTpzdM	Springboard diving	Participating_in_sports&Exercise&Recreation	Sports, Exercise, and Recreation	Participating in Sports, Exercise, or Recreation	Participating in water sports	193	1	True	True	True	True	0.9340621999872384
video_on	action	6	eeg	2	R4D5HAWxiYg	Making an omelette	Food&Drink_prep.&Presentation&Clean-up	Eating and drinking Activities	Food & Drink Prep., Presentation, & Clean-up	Food and drink preparation	334	5	False	False	False	True	0.0
video_on	action	6	eeg	2	4jHgjNrfw-Y	Chopping wood	Interior_maintenance&Repair&Decoration	Household Activities	Interior Maintenance, Repair, & Decoration	Heating and cooling	110	7	True	False	False	True	0.0050823999918065
video_on	action	6	eeg	2	l5TQ19qycUo	Spread mulch	Lawn&Garden&Houseplants	Household Activities	Lawn, Garden, and Houseplants	Lawn, garden, and houseplant care	374	9	False	False	False	True	0.0
video_on	action	6	eeg	2	TElIs_fA06M	Using the pommel horse	Participating_in_sports&Exercise&Recreation	Sports, Exercise, and Recreation	Participating in Sports, Exercise, or Recreation	Doing gymnastics	114	1	True	True	False	False	0.0050744999898597
video_on	action	6	meg	3	0KjlcJuKW6w	Snowboarding	Participating_in_sports&Exercise&Recreation	Sports, Exercise, and Recreation	Participating in Sports, Exercise, or Recreation	Skiing, ice skating, snowboarding	373	1	True	True	True	True	0.3392653435787451
video_on	action	6	meg	3	RB4wORclQtg	Ballet	Arts&Entertainment	Socializing, Relaxing, and Leisure	Arts and Entertainment	Attending arts and entertainment	229	2	True	False	False	True	0.7291446114277278
video_on	action	6	meg	3	rLV8M9LvYUE	Powerbocking	Participating_in_sports&Exercise&Recreation	Sports, Exercise, and Recreation	Participating in Sports, Exercise, or Recreation	Playing sports	350	1	True	True	False	False	0.4255259674496301
video_on	action	6	meg	3	OtRsOADDd7Q	Spinning	Participating_in_sports&Exercise&Recreation	Sports, Exercise, and Recreation	Participating in Sports, Exercise, or Recreation	Using cardiovascular equipment	117	1	True	True	True	True	0.3456752110434991
video_on	action	6	meg	3	VV92vu9WJyo	Cricket	Participating_in_sports&Exercise&Recreation	Sports, Exercise, and Recreation	Participating in Sports, Exercise, or Recreation	Playing sports	82	1	True	True	True	True	0.5457733181794993
video_on	action	6	meg	3	bkbtJvVzD3I	Baking cookies	Food&Drink_prep.&Presentation&Clean-up	Eating and drinking Activities	Food & Drink Prep., Presentation, & Clean-up	Food and drink preparation	276	5	True	False	False	True	0.3853461144292396
video_on	action	6	meg	3	B-Y2cbNnEQI	Playing rubik cube	Relaxing&Leisure	Socializing, Relaxing, and Leisure	Relaxing and Leisure	Playing games	349	3	True	False	False	True	0.5855208960651908
video_on	action	6	meg	3	X5vLdnbLEHE	Shot put	Participating_in_sports&Exercise&Recreation	Sports, Exercise, and Recreation	Participating in Sports, Exercise, or Recreation	Playing sports	169	1	True	True	True	True	0.3297558943522745
video_on	action	6	meg	3	bcifPYg9by8	Waxing skis	Appliances&Tools&Toys	Household Activities	Appliances, Tools, and Toys	Appliance, tool, and toy set-up, repair, & maintenance (by self)	387	10	True	False	False	True	0.3696975734330863
video_on	action	6	meg	3	0z2WeHHqT4M	Playing drums	Arts&Entertainment	Socializing, Relaxing, and Leisure	Arts and Entertainment	Playing musical instruments	346	2	True	False	False	True	0.3620382738577063
video_on	action	6	meg	3	p4PSKVsG9p0	Rock climbing	Participating_in_sports&Exercise&Recreation	Sports, Exercise, and Recreation	Participating in Sports, Exercise, or Recreation	Climbing, spelunking, caving	188	1	True	True	True	True	0.0051785474406642
video_on	action	6	meg	3	yxCoUXEH8es	Playing ice hockey	Participating_in_sports&Exercise&Recreation	Sports, Exercise, and Recreation	Participating in Sports, Exercise, or Recreation	Playing hockey	347	1	True	True	True	True	0.5551928107088315
video_on	action	6	meg	3	0P-pWzEdXKc	Snow tubing	Participating_in_sports&Exercise&Recreation	Sports, Exercise, and Recreation	Participating in Sports, Exercise, or Recreation	Skiing, ice skating, snowboarding	372	1	True	True	False	False	0.2801861318771443
video_on	action	6	meg	3	RN3bGHccXwc	Mowing the lawn	Lawn&Garden&Houseplants	Household Activities	Lawn, Garden, and Houseplants	Lawn, garden, and houseplant care	218	9	True	False	False	True	0.5173847354349164
video_on	action	6	meg	3	V3LPU8lgT7o	Trimming branches or hedges	Lawn&Garden&Houseplants	Household Activities	Lawn, Garden, and Houseplants	Lawn, garden, and houseplant care	381	9	True	False	False	True	0.3075676826038034
video_on	action	6	meg	3	B751L4N5T3E	Shuffleboard	Relaxing&Leisure	Socializing, Relaxing, and Leisure	Relaxing and Leisure	Playing games	368	3	True	False	False	True	0.3469910541384706
video_on	action	6	meg	3	SItPPYG3sq0	Bullfighting	Participating_in_sports&Exercise&Recreation	Sports, Exercise, and Recreation	Participating in Sports, Exercise, or Recreation	Participating in rodeo competitions	288	1	True	True	False	False	0.317500954658044
video_on	action	6	meg	3	BbLrA4C0Suc	Tumbling	Participating_in_sports&Exercise&Recreation	Sports, Exercise, and Recreation	Participating in Sports, Exercise, or Recreation	Doing gymnastics	258	1	True	True	True	True	0.4913356305496563
video_on	action	6	meg	3	w_FwHEuPjqI	Snatch	Participating_in_sports&Exercise&Recreation	Sports, Exercise, and Recreation	Participating in Sports, Exercise, or Recreation	Weightlifting	79	1	True	True	True	True	0.3241734473790529
video_on	action	6	meg	3	PoL_b6NTxm4	Carving jack-o-lanterns	Interior_maintenance&Repair&Decoration	Household Activities	Interior Maintenance, Repair, & Decoration	Interior arrangement, decoration, & repairs	295	7	True	False	False	True	0.3082194158546372
video_on	action	6	meg	3	KN7g7xJpRFE	Tango	Arts&Entertainment	Socializing, Relaxing, and Leisure	Arts and Entertainment	Dancing	73	2	True	False	False	True	0.4462923803962439
video_on	action	6	meg	3	UQzOhwKlxpk	Hammer throw	Participating_in_sports&Exercise&Recreation	Sports, Exercise, and Recreation	Participating in Sports, Exercise, or Recreation	Playing sports	224	1	True	True	True	True	0.8763744432421845
video_on	action	6	meg	3	MPdMik80jtg	Archery	Participating_in_sports&Exercise&Recreation	Sports, Exercise, and Recreation	Participating in Sports, Exercise, or Recreation	Playing sports	250	1	True	True	True	True	0.6206061209795735
video_on	action	6	meg	3	u7-dyEILi3g	Playing racquetball	Participating_in_sports&Exercise&Recreation	Sports, Exercise, and Recreation	Participating in Sports, Exercise, or Recreation	Playing racquet sports	253	1	True	True	True	True	0.3730048404549961
video_on	action	6	meg	3	R0vfWlv9UWQ	Paintball	Participating_in_sports&Exercise&Recreation	Sports, Exercise, and Recreation	Participating in Sports, Exercise, or Recreation	Playing sports	141	1	True	True	False	False	0.3403197688899126
video_on	action	6	meg	3	aZlDaYi70p4	Croquet	Participating_in_sports&Exercise&Recreation	Sports, Exercise, and Recreation	Participating in Sports, Exercise, or Recreation	Playing sports	299	1	True	True	True	True	0.3013498032573807
video_on	action	6	meg	3	iYrj7gzFRik	Making a sandwich	Food&Drink_prep.&Presentation&Clean-up	Eating and drinking Activities	Food & Drink Prep., Presentation, & Clean-up	Food and drink preparation	129	5	True	False	False	True	0.3588448111136131
video_on	action	6	meg	3	JBopG0z79Zo	Smoking hookah	Relaxing&Leisure	Socializing, Relaxing, and Leisure	Relaxing and Leisure	Tobacco and drug use	189	3	True	False	False	True	0.6776963236989104
video_on	action	6	meg	3	3qSJDihFjk8	Beach soccer	Participating_in_sports&Exercise&Recreation	Sports, Exercise, and Recreation	Participating in Sports, Exercise, or Recreation	Playing soccer	278	1	True	True	True	True	0.5809488016589057
video_on	action	6	meg	3	iAWXaWo82u4	Bathing dog	Animals&Pets	Household Activities	Animals and Pets	Care for animals and pets (not veterinary care)	90	8	True	False	False	True	0.4299700697765729
video_on	action	6	meg	3	rtH9hprM5RQ	Doing kickboxing	Participating_in_sports&Exercise&Recreation	Sports, Exercise, and Recreation	Participating in Sports, Exercise, or Recreation	Participating in martial arts	70	1	True	True	True	True	0.3342274666774756
video_on	action	6	meg	3	IhjNP1I3Hak	Windsurfing	Participating_in_sports&Exercise&Recreation	Sports, Exercise, and Recreation	Participating in Sports, Exercise, or Recreation	Participating in water sports	237	1	True	True	True	True	0.4856955267673584
video_on	action	6	meg	3	ToGcgQCUyfk	Painting fence	Exterior_maintenance&Repair&Decoration	Household Activities	Exterior Maintenance, Repair, & Decoration	Painting fence	336	12	True	False	False	True	0.6379070880138897
video_on	action	6	meg	3	nhL1EH7fLqw	Cleaning windows	Housework	Household Activities	Housework	Interior cleaning	143	6	True	False	False	True	0.3019070517902946
video_on	action	6	meg	3	jaPX0FbZ6BU	Rafting	Participating_in_sports&Exercise&Recreation	Sports, Exercise, and Recreation	Participating in Sports, Exercise, or Recreation	Boating	353	1	True	True	True	True	0.2939268664126757
video_on	action	6	meg	3	lLdWNC539xk	Doing step aerobics	Participating_in_sports&Exercise&Recreation	Sports, Exercise, and Recreation	Participating in Sports, Exercise, or Recreation	Doing aerobics	230	1	True	True	False	False	0.2863463544144906
video_on	action	6	meg	3	MlI9JsOEdmM	Shoveling snow	Exterior_maintenance&Repair&Decoration	Household Activities	Exterior Maintenance, Repair, & Decoration	Exterior cleaning	183	12	True	False	False	True	0.3366113191486874
video_on	action	6	meg	3	tnbTIuUazGs	Playing badminton	Participating_in_sports&Exercise&Recreation	Sports, Exercise, and Recreation	Participating in Sports, Exercise, or Recreation	Playing racquet sports	268	1	True	True	True	True	0.718561115463217
video_on	action	6	meg	3	PvdI8Y_BHxU	Javelin throw	Participating_in_sports&Exercise&Recreation	Sports, Exercise, and Recreation	Participating in Sports, Exercise, or Recreation	Playing sports	116	1	True	True	True	True	0.4255141945932337
video_on	action	6	meg	3	H_9nzSsdZFo	Elliptical trainer	Participating_in_sports&Exercise&Recreation	Sports, Exercise, and Recreation	Participating in Sports, Exercise, or Recreation	Using cardiovascular equipment	308	1	True	True	True	True	0.2868057976788805
video_on	action	6	meg	3	tbaoLI5MzUI	Mixing drinks	Food&Drink_prep.&Presentation&Clean-up	Eating and drinking Activities	Food & Drink Prep., Presentation, & Clean-up	Food and drink preparation	244	5	True	False	False	True	0.3029765705064164
video_on	action	6	meg	3	7-MzwkZCjts	Zumba	Participating_in_sports&Exercise&Recreation	Sports, Exercise, and Recreation	Participating in Sports, Exercise, or Recreation	Doing aerobics	69	1	True	True	False	False	0.3039857156013568
video_on	action	6	meg	3	y_yDlNK96II	Playing beach volleyball	Participating_in_sports&Exercise&Recreation	Sports, Exercise, and Recreation	Participating in Sports, Exercise, or Recreation	Playing volleyball	341	1	True	True	True	True	0.2894048821131036
video_on	action	6	meg	3	sjgqiJ7onpA	Slacklining	Relaxing&Leisure	Socializing, Relaxing, and Leisure	Relaxing and Leisure	Playing games	371	3	True	False	False	True	0.424817784861716
video_on	action	6	meg	3	qIM2SfV4ars	Beer pong	Relaxing&Leisure	Socializing, Relaxing, and Leisure	Relaxing and Leisure	Playing games	280	3	True	False	False	True	0.327468639676681
video_on	action	6	meg	3	6xFhThdnYqE	Fixing bicycle	Vehicles	Household Activities	Vehicles	Vehicle repair and maintenance (by self)	171	11	True	False	False	True	0.2826852979665091
video_on	action	6	meg	3	oSvhBWp0TPY	Ping-pong	Participating_in_sports&Exercise&Recreation	Sports, Exercise, and Recreation	Participating in Sports, Exercise, or Recreation	Playing racquet sports	119	1	True	True	True	True	0.0050937225018969
video_on	action	6	meg	3	3PrMwrrUgT8	Blow-drying hair	Grooming	Personal Care	Grooming	Washing, dressing and grooming oneself	281	4	True	False	False	True	0.3930817866362304
video_on	action	6	meg	3	9c3SVdhJGyk	Volleyball	Participating_in_sports&Exercise&Recreation	Sports, Exercise, and Recreation	Participating in Sports, Exercise, or Recreation	Playing volleyball	123	1	True	True	True	True	0.4744672405181518
video_on	action	6	meg	3	lqyRJJs9e4U	Starting a campfire	Participating_in_sports&Exercise&Recreation	Sports, Exercise, and Recreation	Participating in Sports, Exercise, or Recreation	Playing sports	153	1	True	True	False	False	0.3444001201432911
video_on	action	6	meg	3	8irDcKheths	Preparing pasta	Food&Drink_prep.&Presentation&Clean-up	Eating and drinking Activities	Food & Drink Prep., Presentation, & Clean-up	Food and drink preparation	186	5	True	False	False	True	0.3127694738891478
video_on	action	6	meg	3	87S3cUdiX-g	Playing guitarra	Arts&Entertainment	Socializing, Relaxing, and Leisure	Arts and Entertainment	Playing musical instruments	251	2	True	False	False	True	0.4735510708014772
video_on	action	6	meg	3	qiCgdZ00d0k	Vacuuming floor	Housework	Household Activities	Housework	Interior cleaning	160	6	True	False	False	True	0.3048644536715983
video_on	action	6	meg	3	jKBbWq3RuXk	Doing nails	Grooming	Personal Care	Grooming	Washing, dressing and grooming oneself	167	4	True	False	False	True	0.3545453036117578
video_on	action	6	meg	3	8WjnbMqtY-0	Painting furniture	Interior_maintenance&Repair&Decoration	Household Activities	Interior Maintenance, Repair, & Decoration	Building and repairing furniture	337	7	True	False	False	True	0.3700193648396634
video_on	action	6	meg	3	bCcPwufTgLY	Canoeing	Participating_in_sports&Exercise&Recreation	Sports, Exercise, and Recreation	Participating in Sports, Exercise, or Recreation	Boating	292	1	True	True	False	False	0.378735504670658
video_on	action	6	meg	3	Qnty-NgS0o0	Springboard diving	Participating_in_sports&Exercise&Recreation	Sports, Exercise, and Recreation	Participating in Sports, Exercise, or Recreation	Participating in water sports	193	1	True	True	True	True	0.6648620991004464
video_on	action	6	meg	3	_ssV2_njZcE	Grooming horse	Animals&Pets	Household Activities	Animals and Pets	Walking / exercising / playing with animals	95	8	True	False	False	True	0.3055382232946613
video_on	action	6	meg	3	y9DI_XzSGX4	Drum corps	Arts&Entertainment	Socializing, Relaxing, and Leisure	Arts and Entertainment	Playing musical instruments	307	2	True	False	False	True	0.4097639240440003
video_on	action	6	meg	3	r0W2u57Pqnc	Brushing teeth	Grooming	Personal Care	Grooming	Washing, dressing and grooming oneself	148	4	True	False	False	True	0.3540309203503966
video_on	action	6	meg	3	U0ttB1vA4Xk	Cutting the grass	Lawn&Garden&Houseplants	Household Activities	Lawn, Garden, and Houseplants	Lawn, garden, and houseplant care	301	9	True	False	True	False	0.7937682347205737
video_on	action	6	meg	3	4FVsayToN8w	Swinging at the playground	Arts&Entertainment	Socializing, Relaxing, and Leisure	Arts and Entertainment	Park activities	378	2	True	False	True	False	0.0050716861296677
video_on	action	6	meg	3	iQwZqTL6Axw	Calf roping	Participating_in_sports&Exercise&Recreation	Sports, Exercise, and Recreation	Participating in Sports, Exercise, or Recreation	Participating in rodeo competitions	290	1	True	True	True	True	0.3938446073525483
video_on	action	6	meg	3	OFdAa_6j5N0	Arm wrestling	Participating_in_sports&Exercise&Recreation	Sports, Exercise, and Recreation	Participating in Sports, Exercise, or Recreation	Wrestling	271	1	True	True	False	False	0.6600841306426446
video_on	action	6	meg	3	-TrlsFjteWM	Walking the dog	Animals&Pets	Household Activities	Animals and Pets	Walking / exercising / playing with animals	221	8	True	False	False	True	0.4906419376306985
video_on	action	6	meg	3	btMQJJtLJEw	Ice fishing	Participating_in_sports&Exercise&Recreation	Sports, Exercise, and Recreation	Participating in Sports, Exercise, or Recreation	Fishing	324	1	True	True	False	False	0.3246063262499774
video_on	action	6	meg	3	a5eZf7_PZ4g	Playing piano	Arts&Entertainment	Socializing, Relaxing, and Leisure	Arts and Entertainment	Playing musical instruments	197	2	True	False	False	True	0.4990972634145691
video_on	action	6	meg	3	zDL7inj9Xcs	Knitting	Housework	Household Activities	Housework	Sewing, repairing, & maintaining textiles	329	6	True	False	False	True	0.370547332165188
video_on	action	6	meg	3	F3QY5vMz_6I	Clean and jerk	Participating_in_sports&Exercise&Recreation	Sports, Exercise, and Recreation	Participating in Sports, Exercise, or Recreation	Weightlifting	84	1	True	True	False	False	0.9408694707194628
video_on	action	6	meg	3	iZ3fEPhODws	Polishing shoes	Housework	Household Activities	Housework	Sewing, repairing, & maintaining textiles	227	6	True	False	False	True	0.4109713964871844
video_on	action	6	meg	3	u18gMdYX1QU	Brushing hair	Grooming	Personal Care	Grooming	Washing, dressing and grooming oneself	125	4	True	False	False	True	0.3556969304540871
video_on	action	6	meg	3	1c95XG-gru0	Kneeling	Participating_in_sports&Exercise&Recreation	Sports, Exercise, and Recreation	Participating in Sports, Exercise, or Recreation	Working out	328	1	True	True	True	True	0.451871204951658
video_on	action	6	meg	3	3pU_tGdkGZY	Doing karate	Participating_in_sports&Exercise&Recreation	Sports, Exercise, and Recreation	Participating in Sports, Exercise, or Recreation	Participating in martial arts	99	1	True	True	True	True	0.3860802576746209
video_on	action	6	meg	3	jb6XOqWb7EA	Playing blackjack	Arts&Entertainment	Socializing, Relaxing, and Leisure	Arts and Entertainment	Attending gambling establishments	343	2	True	False	False	True	0.3702321818573182
video_on	action	6	meg	3	6c7S8o6cK8E	Playing kickball	Participating_in_sports&Exercise&Recreation	Sports, Exercise, and Recreation	Participating in Sports, Exercise, or Recreation	Playing sports	257	1	True	True	False	False	0.3583346540062848
video_on	action	6	meg	3	4NSGTW1i_yc	Welding	Appliances&Tools&Toys	Household Activities	Appliances, Tools, and Toys	Appliance, tool, and toy set-up, repair, & maintenance (by self)	388	10	True	False	False	True	0.1627026855694566
video_on	action	6	meg	3	CSeZbYYpnWk	Disc dog	Animals&Pets	Household Activities	Animals and Pets	Walking / exercising / playing with animals	303	8	True	False	False	True	0.5566300047844379
video_on	action	6	meg	3	QrsJ9awfGoE	Wakeboarding	Participating_in_sports&Exercise&Recreation	Sports, Exercise, and Recreation	Participating in Sports, Exercise, or Recreation	Participating in water sports	385	1	True	True	False	False	0.4550525929716968
video_on	action	6	meg	3	jJnHA_jDRPA	Skiing	Participating_in_sports&Exercise&Recreation	Sports, Exercise, and Recreation	Participating in Sports, Exercise, or Recreation	Skiing, ice skating, snowboarding	369	1	True	True	True	True	0.4545457564136086
video_on	action	6	meg	3	TvKms9yl3zQ	Wrapping presents	Household_management	Household Activities	Household Management	Household & personal organization and planning	179	13	True	False	False	True	0.7805162246563668
video_on	action	6	meg	3	MSWdq66-RvM	Belly dance	Arts&Entertainment	Socializing, Relaxing, and Leisure	Arts and Entertainment	Dancing	247	2	True	False	False	True	0.8367666302915495
video_on	action	6	meg	3	DfgzMjn6LJA	High jump	Participating_in_sports&Exercise&Recreation	Sports, Exercise, and Recreation	Participating in Sports, Exercise, or Recreation	Playing sports	195	1	True	True	False	False	0.8929515305471796
video_on	action	6	meg	3	MJsBhEWQM6s	Grooming dog	Animals&Pets	Household Activities	Animals and Pets	Care for animals and pets (not veterinary care)	317	8	True	False	False	True	0.5096961546528291
video_on	action	6	meg	3	BCb8pok-5ZM	Playing lacrosse	Participating_in_sports&Exercise&Recreation	Sports, Exercise, and Recreation	Participating in Sports, Exercise, or Recreation	Playing racquet sports	209	1	True	True	True	True	0.2858280468681187
video_on	action	6	meg	3	dYJ-Wyv8ALc	Hanging wallpaper	Interior_maintenance&Repair&Decoration	Household Activities	Interior Maintenance, Repair, & Decoration	Interior arrangement, decoration, & repairs	319	7	True	False	False	True	0.4280344914504894
video_on	action	6	meg	3	ZB5T7c-xCdI	Bungee jumping	Participating_in_sports&Exercise&Recreation	Sports, Exercise, and Recreation	Participating in Sports, Exercise, or Recreation	Playing sports	154	1	True	True	True	True	0.7882518968640397
video_on	action	6	meg	3	Rg4N72sN8nE	Camel ride	Participating_in_sports&Exercise&Recreation	Sports, Exercise, and Recreation	Participating in Sports, Exercise, or Recreation	Playing sports	291	1	True	True	False	False	0.3977534975192611
video_on	action	6	meg	3	yUHKJGgT7Hs	Dodgeball	Participating_in_sports&Exercise&Recreation	Sports, Exercise, and Recreation	Participating in Sports, Exercise, or Recreation	Playing sports	161	1	True	True	False	False	0.4326228867348618
video_on	action	6	meg	3	-7hfDGOP5Cw	Doing motocross	Participating_in_sports&Exercise&Recreation	Sports, Exercise, and Recreation	Participating in Sports, Exercise, or Recreation	Playing sports	243	1	True	True	True	True	0.6080517281197899
video_on	action	6	meg	3	oVcv8AkCQBg	Playing polo	Participating_in_sports&Exercise&Recreation	Sports, Exercise, and Recreation	Participating in Sports, Exercise, or Recreation	Participating in equestrian sports	75	1	False	True	False	False	0.0
video_on	action	6	eeg	3	2a_xOlh2EKU	Playing squash	Participating_in_sports&Exercise&Recreation	Sports, Exercise, and Recreation	Participating in Sports, Exercise, or Recreation	Playing racquet sports	194	1	True	True	True	True	0.9128215000091586
video_on	action	6	eeg	3	jeeH9p1oTcM	Playing lacrosse	Participating_in_sports&Exercise&Recreation	Sports, Exercise, and Recreation	Participating in Sports, Exercise, or Recreation	Playing racquet sports	209	1	True	True	True	True	0.9784608999907504
video_on	action	6	eeg	3	ihuVpJqZx68	Cleaning windows	Housework	Household Activities	Housework	Interior cleaning	143	6	True	False	False	True	0.91318410000531
video_on	action	6	eeg	3	8JgQKTFl4Sg	Disc dog	Animals&Pets	Household Activities	Animals and Pets	Walking / exercising / playing with animals	303	8	True	False	False	True	0.7703883999784011
video_on	action	6	eeg	3	VJ7t4LDKcK4	Using the pommel horse	Participating_in_sports&Exercise&Recreation	Sports, Exercise, and Recreation	Participating in Sports, Exercise, or Recreation	Doing gymnastics	114	1	True	True	True	True	0.9929944000032264
video_on	action	6	eeg	3	ZrL37AQ9Des	Snatch	Participating_in_sports&Exercise&Recreation	Sports, Exercise, and Recreation	Participating in Sports, Exercise, or Recreation	Weightlifting	79	1	True	True	True	True	0.7152020999928936
video_on	action	6	eeg	3	D2o5j3xLWh0	Futsal	Participating_in_sports&Exercise&Recreation	Sports, Exercise, and Recreation	Participating in Sports, Exercise, or Recreation	Playing soccer	315	1	True	True	True	True	0.8177818999974988
