event_name	task	subject	session	run	video_id	class_name	raw_superclass_name	superclass_level0	superclass_level1	superclass_level2	class_id	superclass_id	is_resp	stim_is_sports	resp_is_sports	resp_is_right	resp_time
video_on	action	14	meg	1	Jx-R6LssX0c	Triple jump	Participating_in_sports&Exercise&Recreation	Sports, Exercise, and Recreation	Participating in Sports, Exercise, or Recreation	Playing sports	155	1	True	True	True	True	0.3882497128462319
video_on	action	14	meg	1	yAUFCiTO6oo	Grooming horse	Animals&Pets	Household Activities	Animals and Pets	Walking / exercising / playing with animals	95	8	True	False	False	True	0.7966096987790934
video_on	action	14	meg	1	_Ry-RE_unC4	Elliptical trainer	Participating_in_sports&Exercise&Recreation	Sports, Exercise, and Recreation	Participating in Sports, Exercise, or Recreation	Using cardiovascular equipment	308	1	True	True	True	True	0.5875010754116374
video_on	action	14	meg	1	BrIAU34oYCs	Swinging at the playground	Arts&Entertainment	Socializing, Relaxing, and Leisure	Arts and Entertainment	Park activities	378	2	True	False	False	True	0.4128195104575525
video_on	action	14	meg	1	y473vyH0lCM	Hopscotch	Relaxing&Leisure	Socializing, Relaxing, and Leisure	Relaxing and Leisure	Playing games	241	3	True	False	False	True	0.6930118619790164
video_on	action	14	meg	1	2g-Ec4DJbCY	Brushing hair	Grooming	Personal Care	Grooming	Washing, dressing and grooming oneself	125	4	True	False	False	True	0.3331871276622564
video_on	action	14	meg	1	m2cfODI0V_M	Kayaking	Participating_in_sports&Exercise&Recreation	Sports, Exercise, and Recreation	Participating in Sports, Exercise, or Recreation	Participating in water sports	254	1	True	True	True	True	0.3652405827900793
video_on	action	14	meg	1	JCS4VPcSrIg	Tai chi	Participating_in_sports&Exercise&Recreation	Sports, Exercise, and Recreation	Participating in Sports, Exercise, or Recreation	Participating in martial arts	263	1	True	True	False	False	0.5095449763560396
video_on	action	14	meg	1	4IZ30BQDJ-o	Paintball	Participating_in_sports&Exercise&Recreation	Sports, Exercise, and Recreation	Participating in Sports, Exercise, or Recreation	Playing sports	141	1	True	True	True	True	0.3438826812691218
video_on	action	14	meg	1	YOD_R470UPs	Polishing forniture	Housework	Household Activities	Housework	Interior cleaning	156	6	True	False	False	True	0.6538167679691469
video_on	action	14	meg	1	PgUnHSpJ6Bw	Using the rowing machine	Participating_in_sports&Exercise&Recreation	Sports, Exercise, and Recreation	Participating in Sports, Exercise, or Recreation	Using cardiovascular equipment	384	1	True	True	True	True	0.3982189673935181
video_on	action	14	meg	1	B4-G_QAu-po	Playing racquetball	Participating_in_sports&Exercise&Recreation	Sports, Exercise, and Recreation	Participating in Sports, Exercise, or Recreation	Playing racquet sports	253	1	True	True	True	True	0.4963532602707232
video_on	action	14	meg	1	50BpWno7itc	Longboarding	Participating_in_sports&Exercise&Recreation	Sports, Exercise, and Recreation	Participating in Sports, Exercise, or Recreation	Playing sports	331	1	True	True	True	True	0.0053509464377157
video_on	action	14	meg	1	ejUU2esWW9k	Playing badminton	Participating_in_sports&Exercise&Recreation	Sports, Exercise, and Recreation	Participating in Sports, Exercise, or Recreation	Playing racquet sports	268	1	True	True	True	True	0.4005409509205151
video_on	action	14	meg	1	nd9A27JIxB4	Decorating the Christmas tree	Interior_maintenance&Repair&Decoration	Household Activities	Interior Maintenance, Repair, & Decoration	Interior arrangement, decoration, & repairs	302	7	True	False	False	True	0.4305338418835163
video_on	action	14	meg	1	9XfITFpENNk	Brushing teeth	Grooming	Personal Care	Grooming	Washing, dressing and grooming oneself	148	4	True	False	False	True	0.438638143982871
video_on	action	14	meg	1	cHHyEBOTGiw	Drum corps	Arts&Entertainment	Socializing, Relaxing, and Leisure	Arts and Entertainment	Playing musical instruments	307	2	True	False	False	True	0.390108627895529
video_on	action	14	meg	1	LyA3kbb0ggg	Chopping wood	Interior_maintenance&Repair&Decoration	Household Activities	Interior Maintenance, Repair, & Decoration	Heating and cooling	110	7	True	False	False	True	0.4712023630378326
video_on	action	14	meg	1	prSACsCL8Xg	Cutting the grass	Lawn&Garden&Houseplants	Household Activities	Lawn, Garden, and Houseplants	Lawn, garden, and houseplant care	301	9	True	False	False	True	0.7112194488760792
video_on	action	14	meg	1	LIoDJU_HwYg	Beer pong	Relaxing&Leisure	Socializing, Relaxing, and Leisure	Relaxing and Leisure	Playing games	280	3	True	False	False	True	0.3593127629098376
video_on	action	14	meg	1	fDVVwDesG6o	Shoveling snow	Exterior_maintenance&Repair&Decoration	Household Activities	Exterior Maintenance, Repair, & Decoration	Exterior cleaning	183	12	True	False	False	True	0.3914102910479187
video_on	action	14	meg	1	9wR5GOfGaPo	Cleaning sink	Interior_maintenance&Repair&Decoration	Household Activities	Interior Maintenance, Repair, & Decoration	Interior arrangement, decoration, & repairs	297	7	True	False	False	True	0.369167005012514
video_on	action	14	meg	1	uCdy8cnfWTA	Ice fishing	Participating_in_sports&Exercise&Recreation	Sports, Exercise, and Recreation	Participating in Sports, Exercise, or Recreation	Fishing	324	1	True	True	False	False	0.5359099944606669
video_on	action	14	meg	1	lTSSacV4SyA	Playing saxophone	Arts&Entertainment	Socializing, Relaxing, and Leisure	Arts and Entertainment	Playing musical instruments	109	2	True	False	False	True	0.3914655332456505
video_on	action	14	meg	1	SMupR94u2F0	Windsurfing	Participating_in_sports&Exercise&Recreation	Sports, Exercise, and Recreation	Participating in Sports, Exercise, or Recreation	Participating in water sports	237	1	True	True	True	True	0.3920073897759835
video_on	action	14	meg	1	AvyyomobYPo	Playing violin	Arts&Entertainment	Socializing, Relaxing, and Leisure	Arts and Entertainment	Playing musical instruments	234	2	True	False	False	True	0.8477048074295794
video_on	action	14	meg	1	1qrLBG5dWnc	Playing ice hockey	Participating_in_sports&Exercise&Recreation	Sports, Exercise, and Recreation	Participating in Sports, Exercise, or Recreation	Playing hockey	347	1	True	True	True	True	0.5445658129282265
video_on	action	14	meg	1	uX-UwKfRvJY	Doing crunches	Participating_in_sports&Exercise&Recreation	Sports, Exercise, and Recreation	Participating in Sports, Exercise, or Recreation	Working out	305	1	True	True	True	True	0.3918869436726027
video_on	action	14	meg	1	F2Igw6lvqwk	Putting on shoes	Grooming	Personal Care	Grooming	Washing, dressing and grooming oneself	352	4	True	False	False	True	0.346329940818407
video_on	action	14	meg	1	1mxcyByOfIY	Snatch	Participating_in_sports&Exercise&Recreation	Sports, Exercise, and Recreation	Participating in Sports, Exercise, or Recreation	Weightlifting	79	1	True	True	True	True	0.5689882980120728
video_on	action	14	meg	1	UV-4Lp9LSeo	Painting furniture	Interior_maintenance&Repair&Decoration	Household Activities	Interior Maintenance, Repair, & Decoration	Building and repairing furniture	337	7	True	False	False	True	0.8651519839646653
video_on	action	14	meg	1	f0Lla4H7ry4	Canoeing	Participating_in_sports&Exercise&Recreation	Sports, Exercise, and Recreation	Participating in Sports, Exercise, or Recreation	Boating	292	1	True	True	True	True	0.4720322034844457
video_on	action	14	meg	1	kTOw0nmKO_g	Preparing pasta	Food&Drink_prep.&Presentation&Clean-up	Eating and drinking Activities	Food & Drink Prep., Presentation, & Clean-up	Food and drink preparation	186	5	True	False	False	True	0.4008829695549138
video_on	action	14	meg	1	FEBXm9eNmZc	Powerbocking	Participating_in_sports&Exercise&Recreation	Sports, Exercise, and Recreation	Participating in Sports, Exercise, or Recreation	Playing sports	350	1	True	True	False	False	0.9048898401146062
video_on	action	14	meg	1	J8WxSDLZwu0	Hurling	Participating_in_sports&Exercise&Recreation	Sports, Exercise, and Recreation	Participating in Sports, Exercise, or Recreation	Playing sports	323	1	True	True	True	True	0.4168023823575595
video_on	action	14	meg	1	9K4dF3q_7pM	Painting fence	Exterior_maintenance&Repair&Decoration	Household Activities	Exterior Maintenance, Repair, & Decoration	Painting fence	336	12	True	False	False	True	0.3474405203030528
video_on	action	14	meg	1	7W6vbzF1cDg	Table soccer	Relaxing&Leisure	Socializing, Relaxing, and Leisure	Relaxing and Leisure	Playing games	379	3	True	False	False	True	0.3859473508649671
video_on	action	14	meg	1	9Xw6vmkb6Qc	Doing kickboxing	Participating_in_sports&Exercise&Recreation	Sports, Exercise, and Recreation	Participating in Sports, Exercise, or Recreation	Participating in martial arts	70	1	True	True	True	True	0.3695352863311427
video_on	action	14	meg	1	cDxUD6IDtnw	Skateboarding	Participating_in_sports&Exercise&Recreation	Sports, Exercise, and Recreation	Participating in Sports, Exercise, or Recreation	Playing sports	176	1	True	True	True	True	0.3130119525399095
video_on	action	14	meg	1	lGLQSVbODqw	Spread mulch	Lawn&Garden&Houseplants	Household Activities	Lawn, Garden, and Houseplants	Lawn, garden, and houseplant care	374	9	True	False	False	True	0.4658979045698288
video_on	action	14	meg	1	oT_4b18Nq6Y	Playing field hockey	Participating_in_sports&Exercise&Recreation	Sports, Exercise, and Recreation	Participating in Sports, Exercise, or Recreation	Playing hockey	94	1	True	True	True	True	0.5649015828549864
video_on	action	14	meg	1	uD69tUkEwv8	Slacklining	Relaxing&Leisure	Socializing, Relaxing, and Leisure	Relaxing and Leisure	Playing games	371	3	True	False	False	True	0.7948682111339167
video_on	action	14	meg	1	F0Gt2DJ7OTc	Plataform diving	Participating_in_sports&Exercise&Recreation	Sports, Exercise, and Recreation	Participating in Sports, Exercise, or Recreation	Participating in water sports	233	1	True	True	False	False	0.4028888952616398
video_on	action	14	meg	1	6JuUYpo85Kc	Doing motocross	Participating_in_sports&Exercise&Recreation	Sports, Exercise, and Recreation	Participating in Sports, Exercise, or Recreation	Playing sports	243	1	True	True	True	True	0.4592510305084261
video_on	action	14	meg	1	dQqApCGd5Ss	Doing step aerobics	Participating_in_sports&Exercise&Recreation	Sports, Exercise, and Recreation	Participating in Sports, Exercise, or Recreation	Doing aerobics	230	1	True	True	False	False	0.4506456243199181
video_on	action	14	meg	1	LVGd0zAy_-E	Making an omelette	Food&Drink_prep.&Presentation&Clean-up	Eating and drinking Activities	Food & Drink Prep., Presentation, & Clean-up	Food and drink preparation	334	5	True	False	False	True	0.522911777002605
video_on	action	14	meg	1	yHTJ62IbGrw	Braiding hair	Grooming	Personal Care	Grooming	Washing, dressing and grooming oneself	285	4	True	False	False	True	0.4356472166837193
video_on	action	14	meg	1	YFgTbCguyvc	Javelin throw	Participating_in_sports&Exercise&Recreation	Sports, Exercise, and Recreation	Participating in Sports, Exercise, or Recreation	Playing sports	116	1	True	True	True	True	0.4278061451663006
video_on	action	14	meg	1	uGSxRtczhPI	Shuffleboard	Relaxing&Leisure	Socializing, Relaxing, and Leisure	Relaxing and Leisure	Playing games	368	3	True	False	True	False	0.6993619978959487
video_on	action	14	meg	1	Zhv6KuJ1Fnk	Rock climbing	Participating_in_sports&Exercise&Recreation	Sports, Exercise, and Recreation	Participating in Sports, Exercise, or Recreation	Climbing, spelunking, caving	188	1	True	True	True	True	0.3740953335435506
video_on	action	14	meg	1	r402e4Qwmss	Snow tubing	Participating_in_sports&Exercise&Recreation	Sports, Exercise, and Recreation	Participating in Sports, Exercise, or Recreation	Skiing, ice skating, snowboarding	372	1	True	True	True	True	0.5396462386252097
video_on	action	14	meg	1	67Zla6lHnrM	Carving jack-o-lanterns	Interior_maintenance&Repair&Decoration	Household Activities	Interior Maintenance, Repair, & Decoration	Interior arrangement, decoration, & repairs	295	7	True	False	False	True	0.4197450104672953
video_on	action	14	meg	1	ktVkXMGWyeU	Archery	Participating_in_sports&Exercise&Recreation	Sports, Exercise, and Recreation	Participating in Sports, Exercise, or Recreation	Playing sports	250	1	True	True	True	True	0.4287842037501832
video_on	action	14	meg	1	mMDpuD-vblM	Making a cake	Food&Drink_prep.&Presentation&Clean-up	Eating and drinking Activities	Food & Drink Prep., Presentation, & Clean-up	Food and drink preparation	332	5	True	False	False	True	0.4759338723724795
video_on	action	14	meg	1	yT3_O9VU564	Fixing the roof	Exterior_maintenance&Repair&Decoration	Household Activities	Exterior Maintenance, Repair, & Decoration	Exterior repair, improvements, & decoration	311	12	True	False	False	True	0.3708725701357025
video_on	action	14	meg	1	xtGs5djnesw	Ping-pong	Participating_in_sports&Exercise&Recreation	Sports, Exercise, and Recreation	Participating in Sports, Exercise, or Recreation	Playing racquet sports	119	1	True	True	True	True	0.4211659122433957
video_on	action	14	meg	1	uJWhwoWBY_4	Camel ride	Participating_in_sports&Exercise&Recreation	Sports, Exercise, and Recreation	Participating in Sports, Exercise, or Recreation	Playing sports	291	1	True	True	False	False	0.3812520659223537
video_on	action	14	meg	1	-2h5LVFpoxg	Playing drums	Arts&Entertainment	Socializing, Relaxing, and Leisure	Arts and Entertainment	Playing musical instruments	346	2	True	False	False	True	0.4271761426153944
video_on	action	14	meg	1	w_H8gJtwc8w	Bungee jumping	Participating_in_sports&Exercise&Recreation	Sports, Exercise, and Recreation	Participating in Sports, Exercise, or Recreation	Playing sports	154	1	True	True	True	True	0.4275468388935906
video_on	action	14	meg	1	CpszAEAgLiM	Playing congas	Arts&Entertainment	Socializing, Relaxing, and Leisure	Arts and Entertainment	Playing musical instruments	345	2	True	False	False	True	0.0050940551244593
video_on	action	14	meg	1	oBtfbuU-kW4	Clean and jerk	Participating_in_sports&Exercise&Recreation	Sports, Exercise, and Recreation	Participating in Sports, Exercise, or Recreation	Weightlifting	84	1	True	True	True	True	0.3719270018127645
video_on	action	14	meg	1	D37LD2K9upM	Surfing	Participating_in_sports&Exercise&Recreation	Sports, Exercise, and Recreation	Participating in Sports, Exercise, or Recreation	Participating in water sports	376	1	True	True	True	True	0.42930462751508
video_on	action	14	meg	1	ppsWiNEn8KA	Cheerleading	Arts&Entertainment	Socializing, Relaxing, and Leisure	Arts and Entertainment	Dancing	140	2	True	False	False	True	0.3895764312031815
video_on	action	14	meg	1	FlUydH1PXDk	High jump	Participating_in_sports&Exercise&Recreation	Sports, Exercise, and Recreation	Participating in Sports, Exercise, or Recreation	Playing sports	195	1	True	True	True	True	0.3897243474704055
video_on	action	14	meg	1	G7YVUBMVT9E	Using parallel bars	Participating_in_sports&Exercise&Recreation	Sports, Exercise, and Recreation	Participating in Sports, Exercise, or Recreation	Doing gymnastics	88	1	True	True	True	True	0.4777194330278007
video_on	action	14	meg	1	oNKZ0UlObek	Sharpening knives	Appliances&Tools&Toys	Household Activities	Appliances, Tools, and Toys	Appliance, tool, and toy set-up, repair, & maintenance (by self)	365	10	True	False	False	True	0.7928016095705743
video_on	action	14	meg	1	ljZsxP3U_UE	Ballet	Arts&Entertainment	Socializing, Relaxing, and Leisure	Arts and Entertainment	Attending arts and entertainment	229	2	True	False	False	True	0.4862025818936217
video_on	action	14	meg	1	LjlRu2QgaYM	Running a marathon	Participating_in_sports&Exercise&Recreation	Sports, Exercise, and Recreation	Participating in Sports, Exercise, or Recreation	Running	362	1	True	True	True	True	0.4884282689117754
video_on	action	14	meg	1	vXT-ERuJKKU	Preparing salad	Food&Drink_prep.&Presentation&Clean-up	Eating and drinking Activities	Food & Drink Prep., Presentation, & Clean-up	Food and drink preparation	96	5	True	False	False	True	0.4165657163298419
video_on	action	14	meg	1	EWixPBdzuHY	Using the balance beam	Participating_in_sports&Exercise&Recreation	Sports, Exercise, and Recreation	Participating in Sports, Exercise, or Recreation	Doing gymnastics	180	1	True	True	False	False	0.3972158536051893
video_on	action	14	meg	1	nmB5FZbEJ3k	Knitting	Housework	Household Activities	Housework	Sewing, repairing, & maintaining textiles	329	6	True	False	False	True	0.0053476258684668
video_on	action	14	meg	1	TkrASM5C8ZU	Having an ice cream	Food&Drink_prep.&Presentation&Clean-up	Eating and drinking Activities	Food & Drink Prep., Presentation, & Clean-up	Eating and Drinking	320	5	True	False	False	True	0.0050919420349373
video_on	action	14	meg	1	erAhxIi2eOw	Hitting a pinata	Relaxing&Leisure	Socializing, Relaxing, and Leisure	Relaxing and Leisure	Playing games	321	3	True	False	False	True	0.3197825932739988
video_on	action	14	meg	1	UlMYpnpcmeY	Grooming dog	Animals&Pets	Household Activities	Animals and Pets	Care for animals and pets (not veterinary care)	317	8	True	False	False	True	0.3590936053383302
video_on	action	14	meg	1	zGSo7wfpNGI	Waterskiing	Participating_in_sports&Exercise&Recreation	Sports, Exercise, and Recreation	Participating in Sports, Exercise, or Recreation	Participating in water sports	386	1	True	True	False	False	0.1695105329966963
video_on	action	14	meg	1	L5v3bVmghUk	Smoking a cigarette	Relaxing&Leisure	Socializing, Relaxing, and Leisure	Relaxing and Leisure	Tobacco and drug use	201	3	True	False	False	True	0.5457458224974516
video_on	action	14	meg	1	IL42I2cV0BU	Shot put	Participating_in_sports&Exercise&Recreation	Sports, Exercise, and Recreation	Participating in Sports, Exercise, or Recreation	Playing sports	169	1	True	True	True	True	0.5836781945763505
video_on	action	14	meg	1	DX0zwkK0Yow	Getting a haircut	Grooming	Personal Care	Grooming	Washing, dressing and grooming	208	4	True	False	False	True	0.7678402866556553
video_on	action	14	meg	1	Hn6aMgpjo04	Getting a tattoo	Grooming	Personal Care	Grooming	Washing, dressing and grooming	187	4	True	False	False	True	0.7599611795266128
video_on	action	14	meg	1	qsSUdHWzD9g	Doing fencing	Participating_in_sports&Exercise&Recreation	Sports, Exercise, and Recreation	Participating in Sports, Exercise, or Recreation	Fencing	309	1	True	True	True	True	0.4161331367154162
video_on	action	14	meg	1	kXudB8GVjmI	Welding	Appliances&Tools&Toys	Household Activities	Appliances, Tools, and Toys	Appliance, tool, and toy set-up, repair, & maintenance (by self)	388	10	True	False	False	True	0.3830783790187979
video_on	action	14	meg	1	3W-w607y9XI	Swimming	Participating_in_sports&Exercise&Recreation	Sports, Exercise, and Recreation	Participating in Sports, Exercise, or Recreation	Participating in water sports	377	1	True	True	True	True	0.4165693387690226
video_on	action	14	meg	1	SvAcMz1dFHc	Doing nails	Grooming	Personal Care	Grooming	Washing, dressing and grooming oneself	167	4	True	False	False	True	0.768737745967428
video_on	action	14	meg	1	NSMKdXvJ31M	Snowboarding	Participating_in_sports&Exercise&Recreation	Sports, Exercise, and Recreation	Participating in Sports, Exercise, or Recreation	Skiing, ice skating, snowboarding	373	1	True	True	False	False	0.43274835971431
video_on	action	14	meg	1	2ehG7Vkhrjk	Skiing	Participating_in_sports&Exercise&Recreation	Sports, Exercise, and Recreation	Participating in Sports, Exercise, or Recreation	Skiing, ice skating, snowboarding	369	1	True	True	True	True	0.4265911186847688
video_on	action	14	meg	1	BHou5VZHr2Y	Wakeboarding	Participating_in_sports&Exercise&Recreation	Sports, Exercise, and Recreation	Participating in Sports, Exercise, or Recreation	Participating in water sports	385	1	True	True	True	True	0.5851830161938096
video_on	action	14	meg	1	x4jJIu9l9bA	Sailing	Participating_in_sports&Exercise&Recreation	Sports, Exercise, and Recreation	Participating in Sports, Exercise, or Recreation	Participating in water sports	240	1	True	True	True	True	0.6112600503821568
video_on	action	14	meg	1	tQuNPi-Uesw	Bathing dog	Animals&Pets	Household Activities	Animals and Pets	Care for animals and pets (not veterinary care)	90	8	True	False	False	True	0.513449362073402
video_on	action	14	meg	1	NlfJmIeqG4o	Playing pool	Relaxing&Leisure	Socializing, Relaxing, and Leisure	Relaxing and Leisure	Playing games	348	3	True	False	True	False	0.8654988325180284
video_on	action	14	meg	1	k7ECtj4A6oU	Shaving	Grooming	Personal Care	Grooming	Washing, dressing and grooming oneself	190	4	False	False	False	True	0.0
video_on	action	14	eeg	1	yMlHeLoMk2Q	Spinning	Participating_in_sports&Exercise&Recreation	Sports, Exercise, and Recreation	Participating in Sports, Exercise, or Recreation	Using cardiovascular equipment	117	1	True	True	True	True	0.692172199999959
video_on	action	14	eeg	1	FQW2SBVkz9E	Playing squash	Participating_in_sports&Exercise&Recreation	Sports, Exercise, and Recreation	Participating in Sports, Exercise, or Recreation	Playing racquet sports	194	1	True	True	True	True	0.0050675000000524
video_on	action	14	eeg	1	KVDCH8HmiD4	Mowing the lawn	Lawn&Garden&Houseplants	Household Activities	Lawn, Garden, and Houseplants	Lawn, garden, and houseplant care	218	9	True	False	True	False	0.5832518999999934
video_on	action	14	eeg	1	V2xaAlnnkY0	Playing beach volleyball	Participating_in_sports&Exercise&Recreation	Sports, Exercise, and Recreation	Participating in Sports, Exercise, or Recreation	Playing volleyball	341	1	True	True	True	True	0.4852824000000169
video_on	action	14	eeg	1	7oPxuyQ7YKI	Fixing bicycle	Vehicles	Household Activities	Vehicles	Vehicle repair and maintenance (by self)	171	11	True	False	False	True	0.6064433000000236
video_on	action	14	eeg	1	le9k3yDP0gg	Mooping floor	Housework	Household Activities	Housework	Interior cleaning	335	6	True	False	False	True	0.6018889999999715
video_on	action	14	eeg	1	tjjE_zBwN9k	Slacklining	Relaxing&Leisure	Socializing, Relaxing, and Leisure	Relaxing and Leisure	Playing games	371	3	True	False	True	False	0.5742003999999952
video_on	action	14	eeg	1	Cs0v83FRQk8	Bungee jumping	Participating_in_sports&Exercise&Recreation	Sports, Exercise, and Recreation	Participating in Sports, Exercise, or Recreation	Playing sports	154	1	True	True	True	True	0.6919586999999865
video_on	action	14	eeg	1	Y8KzrootkN0	Preparing salad	Food&Drink_prep.&Presentation&Clean-up	Eating and drinking Activities	Food & Drink Prep., Presentation, & Clean-up	Food and drink preparation	96	5	True	False	False	True	0.5833723999999734
video_on	action	14	eeg	1	v4UzpEmKYO0	Polishing shoes	Housework	Household Activities	Housework	Sewing, repairing, & maintaining textiles	227	6	True	False	False	True	0.5992032000000336
video_on	action	14	eeg	1	wjueGc1Jxsg	Playing guitarra	Arts&Entertainment	Socializing, Relaxing, and Leisure	Arts and Entertainment	Playing musical instruments	251	2	True	False	False	True	0.5372800999999754
video_on	action	14	eeg	1	R7zYtL_KCEc	Beer pong	Relaxing&Leisure	Socializing, Relaxing, and Leisure	Relaxing and Leisure	Playing games	280	3	True	False	False	True	0.608308299999976
video_on	action	14	eeg	1	NvpNHyOphkc	Running a marathon	Participating_in_sports&Exercise&Recreation	Sports, Exercise, and Recreation	Participating in Sports, Exercise, or Recreation	Running	362	1	True	True	True	True	0.5603161999999884
video_on	action	14	eeg	1	Kqcq3hq3uGc	Baking cookies	Food&Drink_prep.&Presentation&Clean-up	Eating and drinking Activities	Food & Drink Prep., Presentation, & Clean-up	Food and drink preparation	276	5	True	False	False	True	0.7734373000000119
video_on	action	14	eeg	1	4r7QICXx3ac	Smoking hookah	Relaxing&Leisure	Socializing, Relaxing, and Leisure	Relaxing and Leisure	Tobacco and drug use	189	3	True	False	False	True	1.0457922999999596
video_on	action	14	eeg	1	PiUGUi6iD44	Snowboarding	Participating_in_sports&Exercise&Recreation	Sports, Exercise, and Recreation	Participating in Sports, Exercise, or Recreation	Skiing, ice skating, snowboarding	373	1	True	True	True	True	0.5771563999999785
video_on	action	14	eeg	1	5OWIw--_-tY	Welding	Appliances&Tools&Toys	Household Activities	Appliances, Tools, and Toys	Appliance, tool, and toy set-up, repair, & maintenance (by self)	388	10	True	False	False	True	0.5257626000000073
video_on	action	14	eeg	1	IFpsC2naWaE	Kneeling	Participating_in_sports&Exercise&Recreation	Sports, Exercise, and Recreation	Participating in Sports, Exercise, or Recreation	Working out	328	1	True	True	True	True	0.5058769999999981
video_on	action	14	eeg	1	QM_YGFQH8iw	Disc dog	Animals&Pets	Household Activities	Animals and Pets	Walking / exercising / playing with animals	303	8	True	False	True	False	0.0050696000000129
video_on	action	14	eeg	1	OJzncjP92E8	Wakeboarding	Participating_in_sports&Exercise&Recreation	Sports, Exercise, and Recreation	Participating in Sports, Exercise, or Recreation	Participating in water sports	385	1	True	True	True	True	0.5740954999999985
video_on	action	14	eeg	1	c2CCwwtA5hM	Playing piano	Arts&Entertainment	Socializing, Relaxing, and Leisure	Arts and Entertainment	Playing musical instruments	197	2	True	False	False	True	0.5503234000000248
video_on	action	14	eeg	1	vgPgz7LrgSc	Rope skipping	Participating_in_sports&Exercise&Recreation	Sports, Exercise, and Recreation	Participating in Sports, Exercise, or Recreation	Working out	361	1	True	True	True	True	0.5443088000000103
video_on	action	14	eeg	1	8OHGCccXKUk	Capoeira	Participating_in_sports&Exercise&Recreation	Sports, Exercise, and Recreation	Participating in Sports, Exercise, or Recreation	Participating in martial arts	294	1	True	True	True	True	0.4934734999999932
video_on	action	14	eeg	1	sEjCCEvkw44	Playing drums	Arts&Entertainment	Socializing, Relaxing, and Leisure	Arts and Entertainment	Playing musical instruments	346	2	True	False	False	True	0.49025359999996
video_on	action	14	eeg	1	o5mJU6S9yIQ	Calf roping	Participating_in_sports&Exercise&Recreation	Sports, Exercise, and Recreation	Participating in Sports, Exercise, or Recreation	Participating in rodeo competitions	290	1	True	True	True	True	0.5285031000000231
video_on	action	14	eeg	1	DQtqamfdH04	Horseback riding	Participating_in_sports&Exercise&Recreation	Sports, Exercise, and Recreation	Participating in Sports, Exercise, or Recreation	Participating in equestrian sports	175	1	True	True	True	True	0.4799310000000218
video_on	action	14	eeg	1	NiKddtPZfig	Making a lemonade	Food&Drink_prep.&Presentation&Clean-up	Eating and drinking Activities	Food & Drink Prep., Presentation, & Clean-up	Food and drink preparation	333	5	True	False	False	True	0.4963746999999898
video_on	action	14	eeg	1	fcap3D6kSHQ	Drum corps	Arts&Entertainment	Socializing, Relaxing, and Leisure	Arts and Entertainment	Playing musical instruments	307	2	True	False	False	True	0.5749375999999984
video_on	action	14	eeg	1	Pg3R-BdVb1U	Ironing clothes	Housework	Household Activities	Housework	Laundry	83	6	True	False	False	True	0.5217370000000301
video_on	action	14	eeg	1	xoyz58gFcEk	Baton twirling	Participating_in_sports&Exercise&Recreation	Sports, Exercise, and Recreation	Participating in Sports, Exercise, or Recreation	Playing sports	277	1	True	True	True	True	0.4620886000000155
video_on	action	14	eeg	1	I85YaCVpOfM	Riding bumper cars	Relaxing&Leisure	Socializing, Relaxing, and Leisure	Relaxing and Leisure	Playing games	356	3	True	False	True	False	0.4952412999999751
video_on	action	14	eeg	1	d2HtxzArnZY	Having an ice cream	Food&Drink_prep.&Presentation&Clean-up	Eating and drinking Activities	Food & Drink Prep., Presentation, & Clean-up	Eating and Drinking	320	5	True	False	False	True	0.5733498000000168
video_on	action	14	eeg	1	tWjTibHT-HE	Swinging at the playground	Arts&Entertainment	Socializing, Relaxing, and Leisure	Arts and Entertainment	Park activities	378	2	True	False	True	False	0.5631927999999675
video_on	action	14	eeg	1	gZzdgvCYiXo	Hopscotch	Relaxing&Leisure	Socializing, Relaxing, and Leisure	Relaxing and Leisure	Playing games	241	3	True	False	True	False	0.4417909000000009
video_on	action	14	eeg	1	eqA3rlYqc30	Building sandcastles	Arts&Entertainment	Socializing, Relaxing, and Leisure	Arts and Entertainment	Beach activities	286	2	True	False	False	True	0.5918032000000153
video_on	action	14	eeg	1	T8VTKkpDt2Q	Long jump	Participating_in_sports&Exercise&Recreation	Sports, Exercise, and Recreation	Participating in Sports, Exercise, or Recreation	Playing sports	80	1	True	True	True	True	0.5304074999999671
video_on	action	14	eeg	1	KmpuhnOxhyc	Doing crunches	Participating_in_sports&Exercise&Recreation	Sports, Exercise, and Recreation	Participating in Sports, Exercise, or Recreation	Working out	305	1	True	True	True	True	0.7545863000000281
video_on	action	14	eeg	1	3iRpr4Twr20	Using the monkey bar	Arts&Entertainment	Socializing, Relaxing, and Leisure	Arts and Entertainment	Park activities	383	2	True	False	True	False	0.7099360999999931
video_on	action	14	eeg	1	a9Tk0AU-r6E	Zumba	Participating_in_sports&Exercise&Recreation	Sports, Exercise, and Recreation	Participating in Sports, Exercise, or Recreation	Doing aerobics	69	1	True	True	True	True	0.5166393999999741
video_on	action	14	eeg	1	v9ElYSF5hgc	Rock-paper-scissors	Relaxing&Leisure	Socializing, Relaxing, and Leisure	Relaxing and Leisure	Playing games	358	3	True	False	False	True	0.5736463999999728
video_on	action	14	eeg	1	4X9NtrGeFPk	Knitting	Housework	Household Activities	Housework	Sewing, repairing, & maintaining textiles	329	6	True	False	False	True	0.460532599999965
video_on	action	14	eeg	1	SWZ4zfOT61U	Archery	Participating_in_sports&Exercise&Recreation	Sports, Exercise, and Recreation	Participating in Sports, Exercise, or Recreation	Playing sports	250	1	True	True	True	True	0.463314500000024
video_on	action	14	eeg	1	WBaHAIJrUTI	Doing motocross	Participating_in_sports&Exercise&Recreation	Sports, Exercise, and Recreation	Participating in Sports, Exercise, or Recreation	Playing sports	243	1	True	True	True	True	0.5033399000000145
video_on	action	14	eeg	1	AVbkkAzJz4o	Making an omelette	Food&Drink_prep.&Presentation&Clean-up	Eating and drinking Activities	Food & Drink Prep., Presentation, & Clean-up	Food and drink preparation	334	5	True	False	False	True	0.526422000000025
video_on	action	14	eeg	1	l4QulUHgJts	Futsal	Participating_in_sports&Exercise&Recreation	Sports, Exercise, and Recreation	Participating in Sports, Exercise, or Recreation	Playing soccer	315	1	True	True	True	True	0.2065483000000085
video_on	action	14	eeg	1	vrWYdPeIUqw	Croquet	Participating_in_sports&Exercise&Recreation	Sports, Exercise, and Recreation	Participating in Sports, Exercise, or Recreation	Playing sports	299	1	True	True	True	True	0.5422685000000911
video_on	action	14	eeg	1	AXr-4Dsz0OA	Playing racquetball	Participating_in_sports&Exercise&Recreation	Sports, Exercise, and Recreation	Participating in Sports, Exercise, or Recreation	Playing racquet sports	253	1	True	True	True	True	0.0050698000000011
video_on	action	14	eeg	1	g7PczNzokOc	Elliptical trainer	Participating_in_sports&Exercise&Recreation	Sports, Exercise, and Recreation	Participating in Sports, Exercise, or Recreation	Using cardiovascular equipment	308	1	True	True	True	True	0.547164799999905
video_on	action	14	eeg	1	Cd0BLLsuNd0	Triple jump	Participating_in_sports&Exercise&Recreation	Sports, Exercise, and Recreation	Participating in Sports, Exercise, or Recreation	Playing sports	155	1	True	True	True	True	0.5963014999999814
video_on	action	14	eeg	1	uDKlSmdAOYw	Discus throw	Participating_in_sports&Exercise&Recreation	Sports, Exercise, and Recreation	Participating in Sports, Exercise, or Recreation	Playing sports	92	1	True	True	True	True	0.5717428000000382
video_on	action	14	eeg	1	UKRrEdS_SMI	Playing violin	Arts&Entertainment	Socializing, Relaxing, and Leisure	Arts and Entertainment	Playing musical instruments	234	2	True	False	False	True	0.5599134000000277
video_on	action	14	eeg	1	g3azt0Q_5tY	Paintball	Participating_in_sports&Exercise&Recreation	Sports, Exercise, and Recreation	Participating in Sports, Exercise, or Recreation	Playing sports	141	1	True	True	False	False	0.5946319999999332
video_on	action	14	eeg	1	gfzZDlJyfi4	Assembling bicycle	Vehicles	Household Activities	Vehicles	Vehicle repair and maintenance (by self)	273	11	True	False	False	True	0.5534314999999879
video_on	action	14	eeg	1	gj-I9q9IMzs	Chopping wood	Interior_maintenance&Repair&Decoration	Household Activities	Interior Maintenance, Repair, & Decoration	Heating and cooling	110	7	True	False	False	True	0.8570118000000093
video_on	action	14	eeg	1	aTLfZRxWYak	Getting a haircut	Grooming	Personal Care	Grooming	Washing, dressing and grooming	208	4	True	False	False	True	0.5946980999999596
video_on	action	14	eeg	1	3uw6LXw-TsY	Sailing	Participating_in_sports&Exercise&Recreation	Sports, Exercise, and Recreation	Participating in Sports, Exercise, or Recreation	Participating in water sports	240	1	True	True	True	True	0.4438235999999733
video_on	action	14	eeg	1	Gwz3YgR4kNc	High jump	Participating_in_sports&Exercise&Recreation	Sports, Exercise, and Recreation	Participating in Sports, Exercise, or Recreation	Playing sports	195	1	True	True	True	True	0.4827463999999963
video_on	action	14	eeg	1	GhehJXK8qO0	Waterskiing	Participating_in_sports&Exercise&Recreation	Sports, Exercise, and Recreation	Participating in Sports, Exercise, or Recreation	Participating in water sports	386	1	True	True	True	True	0.5617135999999618
video_on	action	14	eeg	1	o7_H8xOHvaE	Laying tile	Interior_maintenance&Repair&Decoration	Household Activities	Interior Maintenance, Repair, & Decoration	Interior arrangement, decoration, & repairs	330	7	True	False	False	True	0.4663285000000314
video_on	action	14	eeg	1	f8hdzEo1eZA	Tug of war	Relaxing&Leisure	Socializing, Relaxing, and Leisure	Relaxing and Leisure	Playing games	382	3	True	False	True	False	0.4642139000000043
video_on	action	14	eeg	1	yoxmW-d6Xas	Trimming branches or hedges	Lawn&Garden&Houseplants	Household Activities	Lawn, Garden, and Houseplants	Lawn, garden, and houseplant care	381	9	True	False	False	True	0.4849853000000621
video_on	action	14	eeg	1	8XO6wh-aMiM	Raking leaves	Lawn&Garden&Houseplants	Household Activities	Lawn, Garden, and Houseplants	Lawn, garden, and houseplant care	354	9	True	False	False	True	0.4573691000000508
video_on	action	14	eeg	1	pF0kz4NRXaM	Brushing hair	Grooming	Personal Care	Grooming	Washing, dressing and grooming oneself	125	4	True	False	False	True	0.788641699999971
video_on	action	14	eeg	1	2YM61F8AZQY	Bullfighting	Participating_in_sports&Exercise&Recreation	Sports, Exercise, and Recreation	Participating in Sports, Exercise, or Recreation	Participating in rodeo competitions	288	1	True	True	True	True	0.5153600000001006
video_on	action	14	eeg	1	GFWcaTG6cxU	Shoveling snow	Exterior_maintenance&Repair&Decoration	Household Activities	Exterior Maintenance, Repair, & Decoration	Exterior cleaning	183	12	True	False	False	True	0.5285818999999492
video_on	action	14	eeg	1	fQZuwr1zYQ0	Snow tubing	Participating_in_sports&Exercise&Recreation	Sports, Exercise, and Recreation	Participating in Sports, Exercise, or Recreation	Skiing, ice skating, snowboarding	372	1	True	True	True	True	0.561711100000025
video_on	action	14	eeg	1	r4BjHzB9wsM	Ballet	Arts&Entertainment	Socializing, Relaxing, and Leisure	Arts and Entertainment	Attending arts and entertainment	229	2	True	False	True	False	0.590158200000019
video_on	action	14	eeg	1	GzrI2BPUQfw	Hula hoop	Relaxing&Leisure	Socializing, Relaxing, and Leisure	Relaxing and Leisure	Playing games	322	3	True	False	True	False	0.5151816000000053
video_on	action	14	eeg	1	73LZVxxlJV8	Cleaning windows	Housework	Household Activities	Housework	Interior cleaning	143	6	True	False	False	True	0.5011107999999922
video_on	action	14	eeg	1	B94KnYDPBWg	Tumbling	Participating_in_sports&Exercise&Recreation	Sports, Exercise, and Recreation	Participating in Sports, Exercise, or Recreation	Doing gymnastics	258	1	True	True	True	True	0.5180607000000919
video_on	action	14	eeg	1	lznzuL-E47k	Polishing forniture	Housework	Household Activities	Housework	Interior cleaning	156	6	True	False	False	True	0.5186449000000266
video_on	action	14	eeg	1	2DCeEAz8iO8	Playing polo	Participating_in_sports&Exercise&Recreation	Sports, Exercise, and Recreation	Participating in Sports, Exercise, or Recreation	Participating in equestrian sports	75	1	True	True	False	False	0.7731956999999738
video_on	action	14	eeg	1	qevd0HN2ObQ	Beach soccer	Participating_in_sports&Exercise&Recreation	Sports, Exercise, and Recreation	Participating in Sports, Exercise, or Recreation	Playing soccer	278	1	True	True	True	True	0.6518350999999711
video_on	action	14	eeg	1	LGirbr9PAAs	Playing accordion	Arts&Entertainment	Socializing, Relaxing, and Leisure	Arts and Entertainment	Playing musical instruments	267	2	True	False	False	True	0.482081600000015
video_on	action	14	eeg	1	Mpfq3Sq5snU	Sharpening knives	Appliances&Tools&Toys	Household Activities	Appliances, Tools, and Toys	Appliance, tool, and toy set-up, repair, & maintenance (by self)	365	10	True	False	False	True	0.5758376999999655
video_on	action	14	eeg	1	hD5i3l99mac	Washing hands	Grooming	Personal Care	Grooming	Washing, dressing and grooming oneself	173	4	True	False	False	True	0.5443379999999252
video_on	action	14	eeg	1	gbwviuVGwPA	Hand washing clothes	Housework	Household Activities	Housework	Laundry	232	6	True	False	False	True	0.4808171999999331
video_on	action	14	eeg	1	c9yiq8lXdB4	Skiing	Participating_in_sports&Exercise&Recreation	Sports, Exercise, and Recreation	Participating in Sports, Exercise, or Recreation	Skiing, ice skating, snowboarding	369	1	True	True	True	True	0.4806582999999591
video_on	action	14	eeg	1	MZ6lSl6--Zw	Making a cake	Food&Drink_prep.&Presentation&Clean-up	Eating and drinking Activities	Food & Drink Prep., Presentation, & Clean-up	Food and drink preparation	332	5	True	False	False	True	0.6736631999999645
video_on	action	14	eeg	1	OuvtFX_iikc	Kayaking	Participating_in_sports&Exercise&Recreation	Sports, Exercise, and Recreation	Participating in Sports, Exercise, or Recreation	Participating in water sports	254	1	True	True	True	True	0.5589402000000518
video_on	action	14	eeg	1	E_we3J3Gpv4	Decorating the Christmas tree	Interior_maintenance&Repair&Decoration	Household Activities	Interior Maintenance, Repair, & Decoration	Interior arrangement, decoration, & repairs	302	7	True	False	False	True	0.5107514000000037
video_on	action	14	eeg	1	Fz2qK_miQ6w	Playing lacrosse	Participating_in_sports&Exercise&Recreation	Sports, Exercise, and Recreation	Participating in Sports, Exercise, or Recreation	Playing racquet sports	209	1	True	True	True	True	0.4803898000000117
video_on	action	14	eeg	1	iUmrBE1WFfc	Windsurfing	Participating_in_sports&Exercise&Recreation	Sports, Exercise, and Recreation	Participating in Sports, Exercise, or Recreation	Participating in water sports	237	1	True	True	True	True	0.5575824000000011
video_on	action	14	eeg	1	2omU4H1YXv0	Swimming	Participating_in_sports&Exercise&Recreation	Sports, Exercise, and Recreation	Participating in Sports, Exercise, or Recreation	Participating in water sports	377	1	True	True	True	True	0.7615021000000297
video_on	action	14	eeg	1	NPxeCrYXDmc	BMX	Participating_in_sports&Exercise&Recreation	Sports, Exercise, and Recreation	Participating in Sports, Exercise, or Recreation	Biking	274	1	True	True	True	True	0.5777140999999801
video_on	action	14	eeg	1	bAp1FfqA1pY	Smoking a cigarette	Relaxing&Leisure	Socializing, Relaxing, and Leisure	Relaxing and Leisure	Tobacco and drug use	201	3	True	False	False	True	0.5699734999999464
video_on	action	14	eeg	1	K5ZGnHufius	Scuba diving	Participating_in_sports&Exercise&Recreation	Sports, Exercise, and Recreation	Participating in Sports, Exercise, or Recreation	Participating in water sports	364	1	True	True	True	True	0.6610332999999855
video_on	action	14	eeg	1	qV6t-Z5zbJ8	Playing pool	Relaxing&Leisure	Socializing, Relaxing, and Leisure	Relaxing and Leisure	Playing games	348	3	True	False	True	False	0.4755686999999398
video_on	action	14	eeg	1	xcHp1L5FPMM	Table soccer	Relaxing&Leisure	Socializing, Relaxing, and Leisure	Relaxing and Leisure	Playing games	379	3	True	False	True	False	0.5448281000000179
video_on	action	14	eeg	1	NyPWF50b_Bo	Plataform diving	Participating_in_sports&Exercise&Recreation	Sports, Exercise, and Recreation	Participating in Sports, Exercise, or Recreation	Participating in water sports	233	1	True	True	True	True	0.0050671999999849
video_on	action	14	meg	2	Ebl92MkDuIg	Playing water polo	Participating_in_sports&Exercise&Recreation	Sports, Exercise, and Recreation	Participating in Sports, Exercise, or Recreation	Participating in water sports	130	1	True	True	True	True	0.4976603570819407
video_on	action	14	meg	2	Y51S62HiSwE	Tug of war	Relaxing&Leisure	Socializing, Relaxing, and Leisure	Relaxing and Leisure	Playing games	382	3	True	False	True	False	0.4365498077843313
video_on	action	14	meg	2	tGtsrZdTopY	Washing dishes	Food&Drink_prep.&Presentation&Clean-up	Eating and drinking Activities	Food & Drink Prep., Presentation, & Clean-up	Kitchen and food clean-up	213	5	True	False	False	True	0.8423982358721105
video_on	action	14	meg	2	3NHlvQjf1wc	Dodgeball	Participating_in_sports&Exercise&Recreation	Sports, Exercise, and Recreation	Participating in Sports, Exercise, or Recreation	Playing sports	161	1	True	True	True	True	0.4913555016549935
video_on	action	14	meg	2	aI2KafzpKRA	Assembling bicycle	Vehicles	Household Activities	Vehicles	Vehicle repair and maintenance (by self)	273	11	True	False	True	False	0.4094479251725715
video_on	action	14	meg	2	U3VPVNCqa78	Putting in contact lenses	Grooming	Personal Care	Grooming	Washing, dressing and grooming oneself	351	4	True	False	False	True	0.5629768601602336
video_on	action	14	meg	2	DFBVdGyHpeI	Playing lacrosse	Participating_in_sports&Exercise&Recreation	Sports, Exercise, and Recreation	Participating in Sports, Exercise, or Recreation	Playing racquet sports	209	1	True	True	True	True	0.4590273448878861
video_on	action	14	meg	2	0_b1b006SQk	Hand washing clothes	Housework	Household Activities	Housework	Laundry	232	6	True	False	False	True	0.6913796512495765
video_on	action	14	meg	2	FNXFE1EsAYM	Zumba	Participating_in_sports&Exercise&Recreation	Sports, Exercise, and Recreation	Participating in Sports, Exercise, or Recreation	Doing aerobics	69	1	True	True	False	False	0.3953732395323186
video_on	action	14	meg	2	Gkz4ccnoZ50	Fun sliding down	Arts&Entertainment	Socializing, Relaxing, and Leisure	Arts and Entertainment	Park activities	313	2	True	False	False	True	0.4275975530423466
video_on	action	14	meg	2	feGRxzHLi2k	Using the pommel horse	Participating_in_sports&Exercise&Recreation	Sports, Exercise, and Recreation	Participating in Sports, Exercise, or Recreation	Doing gymnastics	114	1	True	True	True	True	0.4365513171339898
video_on	action	14	meg	2	mixXRz68y-g	Arm wrestling	Participating_in_sports&Exercise&Recreation	Sports, Exercise, and Recreation	Participating in Sports, Exercise, or Recreation	Wrestling	271	1	True	True	False	False	0.4758656497674565
video_on	action	14	meg	2	6KYou60haZU	Pole vault	Participating_in_sports&Exercise&Recreation	Sports, Exercise, and Recreation	Participating in Sports, Exercise, or Recreation	Playing sports	106	1	True	True	True	True	0.8681380813449096
video_on	action	14	meg	2	ACd9A-8Ougo	Belly dance	Arts&Entertainment	Socializing, Relaxing, and Leisure	Arts and Entertainment	Dancing	247	2	True	False	False	True	0.4033676609759595
video_on	action	14	meg	2	ejq7pDS1j9g	Rafting	Participating_in_sports&Exercise&Recreation	Sports, Exercise, and Recreation	Participating in Sports, Exercise, or Recreation	Boating	353	1	True	True	True	True	0.7962260220938333
video_on	action	14	meg	2	Ec-1iFCMj2w	Blow-drying hair	Grooming	Personal Care	Grooming	Washing, dressing and grooming oneself	281	4	True	False	False	True	0.3966438100816276
video_on	action	14	meg	2	N8Ub-a9zScQ	Polishing shoes	Housework	Household Activities	Housework	Sewing, repairing, & maintaining textiles	227	6	True	False	False	True	0.7807174542704161
video_on	action	14	meg	2	5y2sAT9x4FE	Disc dog	Animals&Pets	Household Activities	Animals and Pets	Walking / exercising / playing with animals	303	8	True	False	False	True	0.005129072036766
video_on	action	14	meg	2	NUVRP2G1xRY	Horseback riding	Participating_in_sports&Exercise&Recreation	Sports, Exercise, and Recreation	Participating in Sports, Exercise, or Recreation	Participating in equestrian sports	175	1	True	True	False	False	0.984860920975052
video_on	action	14	meg	2	0llTSIkhADg	Kite flying	Relaxing&Leisure	Socializing, Relaxing, and Leisure	Relaxing and Leisure	Playing games	327	3	True	False	False	True	0.7637825510122411
video_on	action	14	meg	2	YZftwKbDPhY	Cleaning shoes	Housework	Household Activities	Housework	Sewing, repairing, & maintaining textiles	134	6	True	False	False	True	0.5655711303670614
video_on	action	14	meg	2	hFadjopd7hE	Doing karate	Participating_in_sports&Exercise&Recreation	Sports, Exercise, and Recreation	Participating in Sports, Exercise, or Recreation	Participating in martial arts	99	1	True	True	True	True	0.5655346041050962
video_on	action	14	meg	2	s_ZYz8QWheg	Hammer throw	Participating_in_sports&Exercise&Recreation	Sports, Exercise, and Recreation	Participating in Sports, Exercise, or Recreation	Playing sports	224	1	True	True	True	True	0.4470458253653078
video_on	action	14	meg	2	u4g_Mpj0LyQ	Using the monkey bar	Arts&Entertainment	Socializing, Relaxing, and Leisure	Arts and Entertainment	Park activities	383	2	True	False	True	False	0.4758294253755366
video_on	action	14	meg	2	SwkNlnu7-hc	Rock-paper-scissors	Relaxing&Leisure	Socializing, Relaxing, and Leisure	Relaxing and Leisure	Playing games	358	3	True	False	False	True	0.9410725740600584
video_on	action	14	meg	2	36ZYktlSZLM	Croquet	Participating_in_sports&Exercise&Recreation	Sports, Exercise, and Recreation	Participating in Sports, Exercise, or Recreation	Playing sports	299	1	True	True	True	True	0.6055384076662449
video_on	action	14	meg	2	FAf8c7I3IHc	Spinning	Participating_in_sports&Exercise&Recreation	Sports, Exercise, and Recreation	Participating in Sports, Exercise, or Recreation	Using cardiovascular equipment	117	1	True	True	True	True	0.5419959941859815
video_on	action	14	meg	2	dftmHF_0M18	Rollerblading	Participating_in_sports&Exercise&Recreation	Sports, Exercise, and Recreation	Participating in Sports, Exercise, or Recreation	Playing sports	359	1	True	True	True	True	0.3424487990859006
video_on	action	14	meg	2	IrXdIe8Svo0	Springboard diving	Participating_in_sports&Exercise&Recreation	Sports, Exercise, and Recreation	Participating in Sports, Exercise, or Recreation	Participating in water sports	193	1	True	True	True	True	0.3497932945631419
video_on	action	14	meg	2	SYbv3Xa4Ij0	Playing bagpipes	Arts&Entertainment	Socializing, Relaxing, and Leisure	Arts and Entertainment	Playing musical instruments	136	2	True	False	False	True	0.406055208992143
video_on	action	14	meg	2	SN_x9F0pk0c	Waxing skis	Appliances&Tools&Toys	Household Activities	Appliances, Tools, and Toys	Appliance, tool, and toy set-up, repair, & maintenance (by self)	387	10	True	False	False	True	0.6793434932690161
video_on	action	14	meg	2	qlH2bcnVdVI	Smoking hookah	Relaxing&Leisure	Socializing, Relaxing, and Leisure	Relaxing and Leisure	Tobacco and drug use	189	3	True	False	False	True	0.6304139995201012
video_on	action	14	meg	2	v2vLdcjo1yI	Getting a piercing	Grooming	Personal Care	Grooming	Washing, dressing and grooming	214	4	True	False	False	True	0.6568249018545202
video_on	action	14	meg	2	I5Vx5LwHoKk	Discus throw	Participating_in_sports&Exercise&Recreation	Sports, Exercise, and Recreation	Participating in Sports, Exercise, or Recreation	Playing sports	92	1	True	True	False	False	0.7507535428210304
video_on	action	14	meg	2	Y7sC6bP0fSU	Playing piano	Arts&Entertainment	Socializing, Relaxing, and Leisure	Arts and Entertainment	Playing musical instruments	197	2	True	False	False	True	0.3928634929068266
video_on	action	14	meg	2	OOfn4Nu55_M	Fixing bicycle	Vehicles	Household Activities	Vehicles	Vehicle repair and maintenance (by self)	171	11	True	False	False	True	0.7509823602304095
video_on	action	14	meg	2	OyrBrTB7PS8	Playing beach volleyball	Participating_in_sports&Exercise&Recreation	Sports, Exercise, and Recreation	Participating in Sports, Exercise, or Recreation	Playing volleyball	341	1	True	True	True	True	0.457421396842733
video_on	action	14	meg	2	DNmNX71kYRw	Making a lemonade	Food&Drink_prep.&Presentation&Clean-up	Eating and drinking Activities	Food & Drink Prep., Presentation, & Clean-up	Food and drink preparation	333	5	True	False	False	True	0.5907552332926116
video_on	action	14	meg	2	iZmQmOxhxoY	Throwing darts	Relaxing&Leisure	Socializing, Relaxing, and Leisure	Relaxing and Leisure	Playing games	380	3	True	False	True	False	0.5273694903077057
video_on	action	14	meg	2	xVNnBQGDXfs	Mooping floor	Housework	Household Activities	Housework	Interior cleaning	335	6	True	False	False	True	0.3994665958277892
video_on	action	14	meg	2	-ZuLCbHsDEY	Mowing the lawn	Lawn&Garden&Houseplants	Household Activities	Lawn, Garden, and Houseplants	Lawn, garden, and houseplant care	218	9	True	False	False	True	0.8052229535860533
video_on	action	14	meg	2	FyX7v2MoPWU	Bullfighting	Participating_in_sports&Exercise&Recreation	Sports, Exercise, and Recreation	Participating in Sports, Exercise, or Recreation	Participating in rodeo competitions	288	1	True	True	True	True	0.9171843987580814
video_on	action	14	meg	2	7h7EZE-CxsY	Starting a campfire	Participating_in_sports&Exercise&Recreation	Sports, Exercise, and Recreation	Participating in Sports, Exercise, or Recreation	Playing sports	153	1	True	True	False	False	0.3680564255280387
video_on	action	14	meg	2	-LUL66dUGWY	Futsal	Participating_in_sports&Exercise&Recreation	Sports, Exercise, and Recreation	Participating in Sports, Exercise, or Recreation	Playing soccer	315	1	True	True	True	True	0.3865320729257746
video_on	action	14	meg	2	dFzUKjjggCM	Building sandcastles	Arts&Entertainment	Socializing, Relaxing, and Leisure	Arts and Entertainment	Beach activities	286	2	True	False	False	True	0.7504344663016127
video_on	action	14	meg	2	qRTRU-D79YY	Making a sandwich	Food&Drink_prep.&Presentation&Clean-up	Eating and drinking Activities	Food & Drink Prep., Presentation, & Clean-up	Food and drink preparation	129	5	True	False	False	True	0.8087744533513614
video_on	action	14	meg	2	iFat07pz0nk	Painting	Interior_maintenance&Repair&Decoration	Household Activities	Interior Maintenance, Repair, & Decoration	Interior arrangement, decoration, & repairs	217	7	True	False	False	True	0.469107687570613
video_on	action	14	meg	2	uTSyGGpXq_I	Playing rubik cube	Relaxing&Leisure	Socializing, Relaxing, and Leisure	Relaxing and Leisure	Playing games	349	3	True	False	False	True	0.6058864636993349
video_on	action	14	meg	2	4m5AQpER-R4	Washing hands	Grooming	Personal Care	Grooming	Washing, dressing and grooming oneself	173	4	True	False	False	True	0.3976816389122177
video_on	action	14	meg	2	H26mORQCTsg	Playing blackjack	Arts&Entertainment	Socializing, Relaxing, and Leisure	Arts and Entertainment	Attending gambling establishments	343	2	True	False	False	True	0.4434016515303938
video_on	action	14	meg	2	_FvOyRCuQqw	Baking cookies	Food&Drink_prep.&Presentation&Clean-up	Eating and drinking Activities	Food & Drink Prep., Presentation, & Clean-up	Food and drink preparation	276	5	True	False	False	True	0.7139878980342473
video_on	action	14	meg	2	er2BEs5EZFw	Playing accordion	Arts&Entertainment	Socializing, Relaxing, and Leisure	Arts and Entertainment	Playing musical instruments	267	2	True	False	False	True	0.7501066355539479
video_on	action	14	meg	2	YSdWIktuCS0	Playing flauta	Arts&Entertainment	Socializing, Relaxing, and Leisure	Arts and Entertainment	Playing musical instruments	149	2	True	False	False	True	0.5418459648290082
video_on	action	14	meg	2	HquB2IkmQXs	Volleyball	Participating_in_sports&Exercise&Recreation	Sports, Exercise, and Recreation	Participating in Sports, Exercise, or Recreation	Playing volleyball	123	1	True	True	True	True	0.4359312762908303
video_on	action	14	meg	2	xfSBr0ORpE0	Tango	Arts&Entertainment	Socializing, Relaxing, and Leisure	Arts and Entertainment	Dancing	73	2	True	False	False	True	1.0338655803373058
video_on	action	14	meg	2	ecnC_XLeajE	Drinking coffee	Food&Drink_prep.&Presentation&Clean-up	Eating and drinking Activities	Food & Drink Prep., Presentation, & Clean-up	Eating and Drinking	68	5	True	False	False	True	0.714940901413911
video_on	action	14	meg	2	q0wKzqqsySk	Cleaning windows	Housework	Household Activities	Housework	Interior cleaning	143	6	True	False	False	True	0.4950449559798926
video_on	action	14	meg	2	GA1DoeREIq4	Vacuuming floor	Housework	Household Activities	Housework	Interior cleaning	160	6	True	False	False	True	0.8012587976218128
video_on	action	14	meg	2	ASg5UGj_23A	Riding bumper cars	Relaxing&Leisure	Socializing, Relaxing, and Leisure	Relaxing and Leisure	Playing games	356	3	True	False	False	True	0.6265618373010966
video_on	action	14	meg	2	DkT1_CUEzjk	Mixing drinks	Food&Drink_prep.&Presentation&Clean-up	Eating and drinking Activities	Food & Drink Prep., Presentation, & Clean-up	Food and drink preparation	244	5	True	False	False	True	0.4502305531614183
video_on	action	14	meg	2	mwGo4erUY50	Scuba diving	Participating_in_sports&Exercise&Recreation	Sports, Exercise, and Recreation	Participating in Sports, Exercise, or Recreation	Participating in water sports	364	1	True	True	True	True	0.4932289064611268
video_on	action	14	meg	2	ZpuZEui-Bu0	Playing squash	Participating_in_sports&Exercise&Recreation	Sports, Exercise, and Recreation	Participating in Sports, Exercise, or Recreation	Playing racquet sports	194	1	True	True	True	True	0.6679460920672682
video_on	action	14	meg	2	q4biSGnUH84	Kneeling	Participating_in_sports&Exercise&Recreation	Sports, Exercise, and Recreation	Participating in Sports, Exercise, or Recreation	Working out	328	1	True	True	True	True	0.9379660305762628
video_on	action	14	meg	2	k7nOzblvfuQ	Hanging wallpaper	Interior_maintenance&Repair&Decoration	Household Activities	Interior Maintenance, Repair, & Decoration	Interior arrangement, decoration, & repairs	319	7	True	False	False	True	0.3873465180056428
video_on	action	14	meg	2	bPbY6jRZilo	Wrapping presents	Household_management	Household Activities	Household Management	Household & personal organization and planning	179	13	True	False	False	True	0.7664051969927641
video_on	action	14	meg	2	tWfxLGjDe00	Laying tile	Interior_maintenance&Repair&Decoration	Household Activities	Interior Maintenance, Repair, & Decoration	Interior arrangement, decoration, & repairs	330	7	True	False	False	True	0.4437789889470878
video_on	action	14	meg	2	0z-RvG3_sHU	Playing guitarra	Arts&Entertainment	Socializing, Relaxing, and Leisure	Arts and Entertainment	Playing musical instruments	251	2	True	False	False	True	0.6838715422684345
video_on	action	14	meg	2	IEIm6DE_0-s	Putting on makeup	Grooming	Personal Care	Grooming	Washing, dressing and grooming oneself	76	4	True	False	False	True	0.7801538631049425
video_on	action	14	meg	2	eM2GzkPyjbc	Playing harmonica	Arts&Entertainment	Socializing, Relaxing, and Leisure	Arts and Entertainment	Playing musical instruments	100	2	True	False	False	True	0.5720836723080538
video_on	action	14	meg	2	CzfDxwDHbpI	Raking leaves	Lawn&Garden&Houseplants	Household Activities	Lawn, Garden, and Houseplants	Lawn, garden, and houseplant care	354	9	True	False	False	True	0.669047917323951
video_on	action	14	meg	2	kwEclFPUcuY	Beach soccer	Participating_in_sports&Exercise&Recreation	Sports, Exercise, and Recreation	Participating in Sports, Exercise, or Recreation	Playing soccer	278	1	True	True	True	True	0.4212610012723417
video_on	action	14	meg	2	bN6feO1uIpI	Trimming branches or hedges	Lawn&Garden&Houseplants	Household Activities	Lawn, Garden, and Houseplants	Lawn, garden, and houseplant care	381	9	True	False	False	True	0.7168260791472676
video_on	action	14	meg	2	LPoijFEglsQ	Calf roping	Participating_in_sports&Exercise&Recreation	Sports, Exercise, and Recreation	Participating in Sports, Exercise, or Recreation	Participating in rodeo competitions	290	1	True	True	True	True	0.421000185649973
video_on	action	14	meg	2	j3K7nxCNBgQ	BMX	Participating_in_sports&Exercise&Recreation	Sports, Exercise, and Recreation	Participating in Sports, Exercise, or Recreation	Biking	274	1	True	True	True	True	0.6470482403246933
video_on	action	14	meg	2	v0oMlaukQRo	Long jump	Participating_in_sports&Exercise&Recreation	Sports, Exercise, and Recreation	Participating in Sports, Exercise, or Recreation	Playing sports	80	1	True	True	True	True	0.4239576053864766
video_on	action	14	meg	2	qUNOFNLvmw4	Ironing clothes	Housework	Household Activities	Housework	Laundry	83	6	True	False	False	True	0.3732896426915886
video_on	action	14	meg	2	WIozM4FlHU0	Capoeira	Participating_in_sports&Exercise&Recreation	Sports, Exercise, and Recreation	Participating in Sports, Exercise, or Recreation	Participating in martial arts	294	1	True	True	True	True	0.4696087916599936
video_on	action	14	meg	2	oFi817gy2KA	Walking the dog	Animals&Pets	Household Activities	Animals and Pets	Walking / exercising / playing with animals	221	8	True	False	False	True	0.1176293550397531
video_on	action	14	meg	2	g93gdZx1Azc	Cricket	Participating_in_sports&Exercise&Recreation	Sports, Exercise, and Recreation	Participating in Sports, Exercise, or Recreation	Playing sports	82	1	True	True	True	True	0.4376214460476149
video_on	action	14	meg	2	MJYYy1tBroE	Breakdancing	Arts&Entertainment	Socializing, Relaxing, and Leisure	Arts and Entertainment	Dancing	236	2	True	False	True	False	0.5119131459825894
video_on	action	14	meg	2	p1_6T9d4ZuY	Using uneven bars	Participating_in_sports&Exercise&Recreation	Sports, Exercise, and Recreation	Participating in Sports, Exercise, or Recreation	Doing gymnastics	192	1	True	True	True	True	0.4228965325710305
video_on	action	14	meg	2	dOhZuR2-tuY	Playing kickball	Participating_in_sports&Exercise&Recreation	Sports, Exercise, and Recreation	Participating in Sports, Exercise, or Recreation	Playing sports	257	1	True	True	False	False	0.8371058522016028
video_on	action	14	meg	2	S_psPKUmIZo	Rope skipping	Participating_in_sports&Exercise&Recreation	Sports, Exercise, and Recreation	Participating in Sports, Exercise, or Recreation	Working out	361	1	True	True	False	False	0.4143213133756944
video_on	action	14	meg	2	v52F2Sja4cE	Tumbling	Participating_in_sports&Exercise&Recreation	Sports, Exercise, and Recreation	Participating in Sports, Exercise, or Recreation	Doing gymnastics	258	1	True	True	True	True	0.4533476620929377
video_on	action	14	meg	2	9F40zIb-DNk	Hand car wash	Vehicles	Household Activities	Vehicles	Vehicle repair and maintenance (by self)	318	11	True	False	False	True	0.5015330464564158
video_on	action	14	meg	2	slgQSXMfjr8	Hula hoop	Relaxing&Leisure	Socializing, Relaxing, and Leisure	Relaxing and Leisure	Playing games	322	3	True	False	False	True	0.3657549691563417
video_on	action	14	meg	2	Z1qa2KwpLhw	Sumo	Participating_in_sports&Exercise&Recreation	Sports, Exercise, and Recreation	Participating in Sports, Exercise, or Recreation	Wrestling	375	1	True	True	True	True	0.4229928290797033
video_on	action	14	meg	2	bmvFoz2l5EI	Plastering	Interior_maintenance&Repair&Decoration	Household Activities	Interior Maintenance, Repair, & Decoration	Interior arrangement, decoration, & repairs	340	7	True	False	False	True	0.3991339351614442
video_on	action	14	meg	2	S1IGMrs3Muw	Baton twirling	Participating_in_sports&Exercise&Recreation	Sports, Exercise, and Recreation	Participating in Sports, Exercise, or Recreation	Playing sports	277	1	True	True	False	False	0.4154605705039103
video_on	action	14	meg	2	ElmNH2Vf8Cs	Playing polo	Participating_in_sports&Exercise&Recreation	Sports, Exercise, and Recreation	Participating in Sports, Exercise, or Recreation	Participating in equestrian sports	75	1	False	True	False	False	0.0
video_on	action	14	eeg	2	k7YxyvgfCpA	Using the pommel horse	Participating_in_sports&Exercise&Recreation	Sports, Exercise, and Recreation	Participating in Sports, Exercise, or Recreation	Doing gymnastics	114	1	True	True	True	True	0.4759240000000773
video_on	action	14	eeg	2	3O0t2V3q4O4	Longboarding	Participating_in_sports&Exercise&Recreation	Sports, Exercise, and Recreation	Participating in Sports, Exercise, or Recreation	Playing sports	331	1	True	True	True	True	0.735238699999968
video_on	action	14	eeg	2	xxljNSPDKIc	Grooming dog	Animals&Pets	Household Activities	Animals and Pets	Care for animals and pets (not veterinary care)	317	8	True	False	False	True	0.5736407000000554
video_on	action	14	eeg	2	u5ZjRdhSJYA	Cricket	Participating_in_sports&Exercise&Recreation	Sports, Exercise, and Recreation	Participating in Sports, Exercise, or Recreation	Playing sports	82	1	True	True	True	True	0.4926229999999805
video_on	action	14	eeg	2	t3uwkv1OhCU	Brushing teeth	Grooming	Personal Care	Grooming	Washing, dressing and grooming oneself	148	4	True	False	False	True	0.5252381000000241
video_on	action	14	eeg	2	iAiI9suVbGg	Playing badminton	Participating_in_sports&Exercise&Recreation	Sports, Exercise, and Recreation	Participating in Sports, Exercise, or Recreation	Playing racquet sports	268	1	True	True	True	True	0.4758034999999836
video_on	action	14	eeg	2	8ClpQ4q6NmM	Bathing dog	Animals&Pets	Household Activities	Animals and Pets	Care for animals and pets (not veterinary care)	90	8	True	False	False	True	0.5016377000000602
video_on	action	14	eeg	2	2IfW2leGdzQ	Drinking coffee	Food&Drink_prep.&Presentation&Clean-up	Eating and drinking Activities	Food & Drink Prep., Presentation, & Clean-up	Eating and Drinking	68	5	True	False	False	True	0.4697219000000814
video_on	action	14	eeg	2	SL8Ko7oYXxQ	Putting on makeup	Grooming	Personal Care	Grooming	Washing, dressing and grooming oneself	76	4	True	False	False	True	0.4013776000000462
video_on	action	14	eeg	2	teDceMxV9PA	Powerbocking	Participating_in_sports&Exercise&Recreation	Sports, Exercise, and Recreation	Participating in Sports, Exercise, or Recreation	Playing sports	350	1	True	True	True	True	0.5203508000000738
video_on	action	14	eeg	2	keE8_yKuVW0	Painting furniture	Interior_maintenance&Repair&Decoration	Household Activities	Interior Maintenance, Repair, & Decoration	Building and repairing furniture	337	7	True	False	False	True	0.4993024999999988
video_on	action	14	eeg	2	bv0XSLgf79Q	Playing water polo	Participating_in_sports&Exercise&Recreation	Sports, Exercise, and Recreation	Participating in Sports, Exercise, or Recreation	Participating in water sports	130	1	True	True	True	True	0.5648205999999618
video_on	action	14	eeg	2	dsqdy3IsrAw	Using the rowing machine	Participating_in_sports&Exercise&Recreation	Sports, Exercise, and Recreation	Participating in Sports, Exercise, or Recreation	Using cardiovascular equipment	384	1	True	True	True	True	0.6439215999999988
video_on	action	14	eeg	2	vd8Fs7ygUgM	Belly dance	Arts&Entertainment	Socializing, Relaxing, and Leisure	Arts and Entertainment	Dancing	247	2	True	False	True	False	0.5071345000000065
video_on	action	14	eeg	2	GCw_wl3QUGw	Dodgeball	Participating_in_sports&Exercise&Recreation	Sports, Exercise, and Recreation	Participating in Sports, Exercise, or Recreation	Playing sports	161	1	True	True	True	True	0.1773663999999826
video_on	action	14	eeg	2	7Oyq8h_2xQ0	Preparing pasta	Food&Drink_prep.&Presentation&Clean-up	Eating and drinking Activities	Food & Drink Prep., Presentation, & Clean-up	Food and drink preparation	186	5	True	False	False	True	0.6531734000000142
video_on	action	14	eeg	2	EobdvzL6HBs	Playing rubik cube	Relaxing&Leisure	Socializing, Relaxing, and Leisure	Relaxing and Leisure	Playing games	349	3	True	False	False	True	0.5109503999999561
video_on	action	14	eeg	2	BQ6HGUAOIro	Washing dishes	Food&Drink_prep.&Presentation&Clean-up	Eating and drinking Activities	Food & Drink Prep., Presentation, & Clean-up	Kitchen and food clean-up	213	5	True	False	False	True	0.4925071000000116
video_on	action	14	eeg	2	FeVUyxwrOjQ	Javelin throw	Participating_in_sports&Exercise&Recreation	Sports, Exercise, and Recreation	Participating in Sports, Exercise, or Recreation	Playing sports	116	1	True	True	True	True	0.5474504000000024
video_on	action	14	eeg	2	WqlRRr6Rg88	Playing field hockey	Participating_in_sports&Exercise&Recreation	Sports, Exercise, and Recreation	Participating in Sports, Exercise, or Recreation	Playing hockey	94	1	True	True	True	True	0.0934485000000222
video_on	action	14	eeg	2	ja_pnDRO-Z4	Canoeing	Participating_in_sports&Exercise&Recreation	Sports, Exercise, and Recreation	Participating in Sports, Exercise, or Recreation	Boating	292	1	True	True	True	True	0.5900189000000182
video_on	action	14	eeg	2	PiuXexmNKQQ	Using uneven bars	Participating_in_sports&Exercise&Recreation	Sports, Exercise, and Recreation	Participating in Sports, Exercise, or Recreation	Doing gymnastics	192	1	True	True	True	True	0.8137662000000319
video_on	action	14	eeg	2	e0jDN6maKfM	Vacuuming floor	Housework	Household Activities	Housework	Interior cleaning	160	6	True	False	False	True	0.5208802000000787
video_on	action	14	eeg	2	_9B-ygXK-mM	Hurling	Participating_in_sports&Exercise&Recreation	Sports, Exercise, and Recreation	Participating in Sports, Exercise, or Recreation	Playing sports	323	1	True	True	True	True	0.5716310000000249
video_on	action	14	eeg	2	JA-B3KK9A-I	Springboard diving	Participating_in_sports&Exercise&Recreation	Sports, Exercise, and Recreation	Participating in Sports, Exercise, or Recreation	Participating in water sports	193	1	True	True	True	True	0.5196134000000256
video_on	action	14	eeg	2	TegdooeuFLY	Playing saxophone	Arts&Entertainment	Socializing, Relaxing, and Leisure	Arts and Entertainment	Playing musical instruments	109	2	True	False	False	True	0.4602851000000783
video_on	action	14	eeg	2	z5-H2ylDyKY	Putting in contact lenses	Grooming	Personal Care	Grooming	Washing, dressing and grooming oneself	351	4	True	False	False	True	0.4551019000000451
video_on	action	14	eeg	2	EDwBh0vmgNU	Painting	Interior_maintenance&Repair&Decoration	Household Activities	Interior Maintenance, Repair, & Decoration	Interior arrangement, decoration, & repairs	217	7	True	False	False	True	0.5583629000000201
video_on	action	14	eeg	2	Cxf19EaVG8k	Getting a tattoo	Grooming	Personal Care	Grooming	Washing, dressing and grooming	187	4	True	False	False	True	0.7061559999999645
video_on	action	14	eeg	2	PcTyIDikvxc	Doing fencing	Participating_in_sports&Exercise&Recreation	Sports, Exercise, and Recreation	Participating in Sports, Exercise, or Recreation	Fencing	309	1	True	True	True	True	0.5061769999999797
video_on	action	14	eeg	2	fWhcoQWfzNc	Rafting	Participating_in_sports&Exercise&Recreation	Sports, Exercise, and Recreation	Participating in Sports, Exercise, or Recreation	Boating	353	1	True	True	True	True	0.0050708999999642
video_on	action	14	eeg	2	DrPEsy2nMuI	Playing kickball	Participating_in_sports&Exercise&Recreation	Sports, Exercise, and Recreation	Participating in Sports, Exercise, or Recreation	Playing sports	257	1	True	True	True	True	0.6546833999999535
video_on	action	14	eeg	2	ZJV8Lw76-jw	Waxing skis	Appliances&Tools&Toys	Household Activities	Appliances, Tools, and Toys	Appliance, tool, and toy set-up, repair, & maintenance (by self)	387	10	True	False	True	False	0.9824524000000564
video_on	action	14	eeg	2	47OmzqOnc9Q	Playing ice hockey	Participating_in_sports&Exercise&Recreation	Sports, Exercise, and Recreation	Participating in Sports, Exercise, or Recreation	Playing hockey	347	1	True	True	True	True	0.5272707999999966
video_on	action	14	eeg	2	Jr73JSnWEfc	Cutting the grass	Lawn&Garden&Houseplants	Household Activities	Lawn, Garden, and Houseplants	Lawn, garden, and houseplant care	301	9	True	False	False	True	0.5827656999999817
video_on	action	14	eeg	2	WTwcj_mGTNI	Volleyball	Participating_in_sports&Exercise&Recreation	Sports, Exercise, and Recreation	Participating in Sports, Exercise, or Recreation	Playing volleyball	123	1	True	True	True	True	0.005070000000046
video_on	action	14	eeg	2	QW8_b4rYnOk	Walking the dog	Animals&Pets	Household Activities	Animals and Pets	Walking / exercising / playing with animals	221	8	True	False	False	True	0.5400472999999693
video_on	action	14	eeg	2	2KzYmWG9rXg	Hanging wallpaper	Interior_maintenance&Repair&Decoration	Household Activities	Interior Maintenance, Repair, & Decoration	Interior arrangement, decoration, & repairs	319	7	True	False	False	True	0.5412453999999798
video_on	action	14	eeg	2	m3YNhDcITnI	Cleaning shoes	Housework	Household Activities	Housework	Sewing, repairing, & maintaining textiles	134	6	True	False	False	True	0.5180424999999786
video_on	action	14	eeg	2	ug5HnR7CnL8	Shot put	Participating_in_sports&Exercise&Recreation	Sports, Exercise, and Recreation	Participating in Sports, Exercise, or Recreation	Playing sports	169	1	True	True	True	True	0.5375819000000774
video_on	action	14	eeg	2	v_gg91G3IgE	Doing step aerobics	Participating_in_sports&Exercise&Recreation	Sports, Exercise, and Recreation	Participating in Sports, Exercise, or Recreation	Doing aerobics	230	1	True	True	True	True	0.5294089000000213
video_on	action	14	eeg	2	VEUF6SeTdOs	Camel ride	Participating_in_sports&Exercise&Recreation	Sports, Exercise, and Recreation	Participating in Sports, Exercise, or Recreation	Playing sports	291	1	True	True	True	True	0.6077364000000216
video_on	action	14	eeg	2	ySYIsUtBgHw	Doing kickboxing	Participating_in_sports&Exercise&Recreation	Sports, Exercise, and Recreation	Participating in Sports, Exercise, or Recreation	Participating in martial arts	70	1	True	True	True	True	0.5422782000000552
video_on	action	14	eeg	2	nr_EI88Ih3I	Wrapping presents	Household_management	Household Activities	Household Management	Household & personal organization and planning	179	13	True	False	False	True	0.5919634999999062
video_on	action	14	eeg	2	tCLxv4a41d0	Snatch	Participating_in_sports&Exercise&Recreation	Sports, Exercise, and Recreation	Participating in Sports, Exercise, or Recreation	Weightlifting	79	1	True	True	True	True	0.4958029000000579
video_on	action	14	eeg	2	6Buj883lIWM	Getting a piercing	Grooming	Personal Care	Grooming	Washing, dressing and grooming	214	4	True	False	False	True	0.4803524999999808
video_on	action	14	eeg	2	Y7lrVMBe3M4	Pole vault	Participating_in_sports&Exercise&Recreation	Sports, Exercise, and Recreation	Participating in Sports, Exercise, or Recreation	Playing sports	106	1	True	True	True	True	0.4748039999999491
video_on	action	14	eeg	2	vdBXmx9szhQ	Making a sandwich	Food&Drink_prep.&Presentation&Clean-up	Eating and drinking Activities	Food & Drink Prep., Presentation, & Clean-up	Food and drink preparation	129	5	True	False	False	True	0.5786254999999301
video_on	action	14	eeg	2	_XlwQjUPDWc	Hitting a pinata	Relaxing&Leisure	Socializing, Relaxing, and Leisure	Relaxing and Leisure	Playing games	321	3	True	False	False	True	0.530963799999995
video_on	action	14	eeg	2	tRsyCNK2xaE	Playing harmonica	Arts&Entertainment	Socializing, Relaxing, and Leisure	Arts and Entertainment	Playing musical instruments	100	2	True	False	False	True	0.4773261000000275
video_on	action	14	eeg	2	2Px-LnJ0S2k	Hammer throw	Participating_in_sports&Exercise&Recreation	Sports, Exercise, and Recreation	Participating in Sports, Exercise, or Recreation	Playing sports	224	1	True	True	True	True	0.6716996999999765
video_on	action	14	eeg	2	UdboD4p10Os	Mixing drinks	Food&Drink_prep.&Presentation&Clean-up	Eating and drinking Activities	Food & Drink Prep., Presentation, & Clean-up	Food and drink preparation	244	5	True	False	False	True	0.6246752000000697
video_on	action	14	eeg	2	SIh5nKTd2zs	Blow-drying hair	Grooming	Personal Care	Grooming	Washing, dressing and grooming oneself	281	4	True	False	False	True	0.4322060999999166
video_on	action	14	eeg	2	j9jlWlkOtkE	Doing karate	Participating_in_sports&Exercise&Recreation	Sports, Exercise, and Recreation	Participating in Sports, Exercise, or Recreation	Participating in martial arts	99	1	True	True	True	True	0.5743701000000101
video_on	action	14	eeg	2	sQpQ-TFHyS4	Painting fence	Exterior_maintenance&Repair&Decoration	Household Activities	Exterior Maintenance, Repair, & Decoration	Painting fence	336	12	True	False	False	True	0.5684493999999631
video_on	action	14	eeg	2	ttHXyUWT1ck	Skateboarding	Participating_in_sports&Exercise&Recreation	Sports, Exercise, and Recreation	Participating in Sports, Exercise, or Recreation	Playing sports	176	1	True	True	True	True	0.455594499999961
video_on	action	14	eeg	2	t0d5mOysM98	Fun sliding down	Arts&Entertainment	Socializing, Relaxing, and Leisure	Arts and Entertainment	Park activities	313	2	True	False	True	False	0.5609930000000531
video_on	action	14	eeg	2	A6H9wOrF_70	Surfing	Participating_in_sports&Exercise&Recreation	Sports, Exercise, and Recreation	Participating in Sports, Exercise, or Recreation	Participating in water sports	376	1	True	True	True	True	0.5249450999999681
video_on	action	14	eeg	2	urFvOA9m2a8	Tai chi	Participating_in_sports&Exercise&Recreation	Sports, Exercise, and Recreation	Participating in Sports, Exercise, or Recreation	Participating in martial arts	263	1	True	True	True	True	0.5074498000000176
video_on	action	14	eeg	2	XWxuFFB6fjI	Cleaning sink	Interior_maintenance&Repair&Decoration	Household Activities	Interior Maintenance, Repair, & Decoration	Interior arrangement, decoration, & repairs	297	7	True	False	False	True	0.5527912000000015
video_on	action	14	eeg	2	DwGJSILXKr8	Rollerblading	Participating_in_sports&Exercise&Recreation	Sports, Exercise, and Recreation	Participating in Sports, Exercise, or Recreation	Playing sports	359	1	True	True	True	True	0.6017693000000008
video_on	action	14	eeg	2	oUxN3rT-3VI	Breakdancing	Arts&Entertainment	Socializing, Relaxing, and Leisure	Arts and Entertainment	Dancing	236	2	True	False	True	False	0.4927483999999822
video_on	action	14	eeg	2	9tGWkvzUU1w	Shuffleboard	Relaxing&Leisure	Socializing, Relaxing, and Leisure	Relaxing and Leisure	Playing games	368	3	True	False	True	False	0.5740142999999307
video_on	action	14	eeg	2	vC5HIaeBHvM	Tango	Arts&Entertainment	Socializing, Relaxing, and Leisure	Arts and Entertainment	Dancing	73	2	True	False	False	True	0.0050693999999111
video_on	action	14	eeg	2	UwZ2Tlhy22I	Using parallel bars	Participating_in_sports&Exercise&Recreation	Sports, Exercise, and Recreation	Participating in Sports, Exercise, or Recreation	Doing gymnastics	88	1	True	True	True	True	0.5656287999998995
video_on	action	14	eeg	2	rpAHvSUpCjU	Clean and jerk	Participating_in_sports&Exercise&Recreation	Sports, Exercise, and Recreation	Participating in Sports, Exercise, or Recreation	Weightlifting	84	1	True	True	True	True	0.5378447000000506
video_on	action	14	eeg	2	gATTueaZzug	Kite flying	Relaxing&Leisure	Socializing, Relaxing, and Leisure	Relaxing and Leisure	Playing games	327	3	True	False	False	True	0.6827796000000035
video_on	action	14	eeg	2	bRgcVLNz7MY	Cheerleading	Arts&Entertainment	Socializing, Relaxing, and Leisure	Arts and Entertainment	Dancing	140	2	True	False	True	False	0.4995829999999159
video_on	action	14	eeg	2	Av4AfJxxJr8	Carving jack-o-lanterns	Interior_maintenance&Repair&Decoration	Household Activities	Interior Maintenance, Repair, & Decoration	Interior arrangement, decoration, & repairs	295	7	True	False	False	True	0.5802360999999792
video_on	action	14	eeg	2	szdKUpvx9Sk	Playing blackjack	Arts&Entertainment	Socializing, Relaxing, and Leisure	Arts and Entertainment	Attending gambling establishments	343	2	True	False	False	True	0.8400656999999683
video_on	action	14	eeg	2	o_bCI21_LNo	Starting a campfire	Participating_in_sports&Exercise&Recreation	Sports, Exercise, and Recreation	Participating in Sports, Exercise, or Recreation	Playing sports	153	1	True	True	False	False	0.4737559000000146
video_on	action	14	eeg	2	0En0q1jg5xc	Hand car wash	Vehicles	Household Activities	Vehicles	Vehicle repair and maintenance (by self)	318	11	True	False	False	True	0.7299058999999488
video_on	action	14	eeg	2	6rlGh1gLzRA	Arm wrestling	Participating_in_sports&Exercise&Recreation	Sports, Exercise, and Recreation	Participating in Sports, Exercise, or Recreation	Wrestling	271	1	True	True	True	True	0.5640511000000288
video_on	action	14	eeg	2	3HZWvvaCBm4	Shaving	Grooming	Personal Care	Grooming	Washing, dressing and grooming oneself	190	4	True	False	False	True	0.4926765999999816
video_on	action	14	eeg	2	2KYGAq5qQCI	Plastering	Interior_maintenance&Repair&Decoration	Household Activities	Interior Maintenance, Repair, & Decoration	Interior arrangement, decoration, & repairs	340	7	True	False	False	True	0.8468895999999404
video_on	action	14	eeg	2	YQrCHekXnQM	Braiding hair	Grooming	Personal Care	Grooming	Washing, dressing and grooming oneself	285	4	True	False	False	True	0.5703618000000006
video_on	action	14	eeg	2	3EC8V46toMY	Fixing the roof	Exterior_maintenance&Repair&Decoration	Household Activities	Exterior Maintenance, Repair, & Decoration	Exterior repair, improvements, & decoration	311	12	True	False	False	True	0.6384722000000238
video_on	action	14	eeg	2	A1Uxz6FhQTs	Rock climbing	Participating_in_sports&Exercise&Recreation	Sports, Exercise, and Recreation	Participating in Sports, Exercise, or Recreation	Climbing, spelunking, caving	188	1	True	True	True	True	0.539239000000066
video_on	action	14	eeg	2	lozU-8gK7UQ	Playing bagpipes	Arts&Entertainment	Socializing, Relaxing, and Leisure	Arts and Entertainment	Playing musical instruments	136	2	True	False	False	True	0.5385872000000518
video_on	action	14	eeg	2	zL7owzAfkrQ	Ice fishing	Participating_in_sports&Exercise&Recreation	Sports, Exercise, and Recreation	Participating in Sports, Exercise, or Recreation	Fishing	324	1	True	True	True	True	0.9378269000000046
video_on	action	14	eeg	2	hf3DDs4-ZSw	Putting on shoes	Grooming	Personal Care	Grooming	Washing, dressing and grooming oneself	352	4	True	False	False	True	0.4952538000000004
video_on	action	14	eeg	2	rUK04hNdEPY	Using the balance beam	Participating_in_sports&Exercise&Recreation	Sports, Exercise, and Recreation	Participating in Sports, Exercise, or Recreation	Doing gymnastics	180	1	True	True	True	True	0.5577557999999954
video_on	action	14	eeg	2	BdMKqLfnZiw	Sumo	Participating_in_sports&Exercise&Recreation	Sports, Exercise, and Recreation	Participating in Sports, Exercise, or Recreation	Wrestling	375	1	True	True	True	True	0.5240097999999307
video_on	action	14	eeg	2	IEYazgaOCLE	Grooming horse	Animals&Pets	Household Activities	Animals and Pets	Walking / exercising / playing with animals	95	8	True	False	False	True	0.4735617999999704
video_on	action	14	eeg	2	r4eudT9fa8E	Spread mulch	Lawn&Garden&Houseplants	Household Activities	Lawn, Garden, and Houseplants	Lawn, garden, and houseplant care	374	9	True	False	False	True	0.4881972000000587
video_on	action	14	eeg	2	27r-vbrV-qA	Ping-pong	Participating_in_sports&Exercise&Recreation	Sports, Exercise, and Recreation	Participating in Sports, Exercise, or Recreation	Playing racquet sports	119	1	True	True	True	True	0.482289000000037
video_on	action	14	eeg	2	W7l0OvovNRk	Playing flauta	Arts&Entertainment	Socializing, Relaxing, and Leisure	Arts and Entertainment	Playing musical instruments	149	2	True	False	False	True	0.498884599999883
video_on	action	14	eeg	2	7oYBVd1MjFY	Doing nails	Grooming	Personal Care	Grooming	Washing, dressing and grooming oneself	167	4	True	False	False	True	0.6598145000000386
video_on	action	14	eeg	2	keVoF7DmsMI	Throwing darts	Relaxing&Leisure	Socializing, Relaxing, and Leisure	Relaxing and Leisure	Playing games	380	3	True	False	True	False	0.5570440000001327
video_on	action	14	eeg	2	CVhjrNOHGHM	Playing congas	Arts&Entertainment	Socializing, Relaxing, and Leisure	Arts and Entertainment	Playing musical instruments	345	2	False	False	False	True	0.0
video_on	action	14	meg	3	cwAi7DJ3kQk	Futsal	Participating_in_sports&Exercise&Recreation	Sports, Exercise, and Recreation	Participating in Sports, Exercise, or Recreation	Playing soccer	315	1	True	True	True	True	0.3724510480169556
video_on	action	14	meg	3	Ft65NWVKkd4	Getting a haircut	Grooming	Personal Care	Grooming	Washing, dressing and grooming	208	4	True	False	False	True	0.3072504629926698
video_on	action	14	meg	3	SnGDUzOzICU	Tug of war	Relaxing&Leisure	Socializing, Relaxing, and Leisure	Relaxing and Leisure	Playing games	382	3	True	False	False	True	0.6192574905253423
video_on	action	14	meg	3	NO9t2sFxXqY	Long jump	Participating_in_sports&Exercise&Recreation	Sports, Exercise, and Recreation	Participating in Sports, Exercise, or Recreation	Playing sports	80	1	True	True	True	True	0.3335128453200013
video_on	action	14	meg	3	AakIyUNqGwA	Sharpening knives	Appliances&Tools&Toys	Household Activities	Appliances, Tools, and Toys	Appliance, tool, and toy set-up, repair, & maintenance (by self)	365	10	True	False	False	True	0.339353122920329
video_on	action	14	meg	3	ofrkSTRhCE4	Running a marathon	Participating_in_sports&Exercise&Recreation	Sports, Exercise, and Recreation	Participating in Sports, Exercise, or Recreation	Running	362	1	True	True	True	True	0.3818621450573118
video_on	action	14	meg	3	2TeRGST-TBw	Playing violin	Arts&Entertainment	Socializing, Relaxing, and Leisure	Arts and Entertainment	Playing musical instruments	234	2	True	False	False	True	0.3340658710385469
video_on	action	14	meg	3	Y0rBAGer0ME	Building sandcastles	Arts&Entertainment	Socializing, Relaxing, and Leisure	Arts and Entertainment	Beach activities	286	2	True	False	False	True	0.3743969016068149
video_on	action	14	meg	3	KVNl50-UjQ0	Polishing shoes	Housework	Household Activities	Housework	Sewing, repairing, & maintaining textiles	227	6	True	False	False	True	0.3807980535430033
video_on	action	14	meg	3	32VYPKSvnSY	Playing bagpipes	Arts&Entertainment	Socializing, Relaxing, and Leisure	Arts and Entertainment	Playing musical instruments	136	2	True	False	False	True	0.7883937048045482
video_on	action	14	meg	3	eIVOBwvv6Uc	Ballet	Arts&Entertainment	Socializing, Relaxing, and Leisure	Arts and Entertainment	Attending arts and entertainment	229	2	True	False	False	True	0.3644536078745659
video_on	action	14	meg	3	g0xegSfqzLc	Playing field hockey	Participating_in_sports&Exercise&Recreation	Sports, Exercise, and Recreation	Participating in Sports, Exercise, or Recreation	Playing hockey	94	1	True	True	True	True	0.3507677307079575
video_on	action	14	meg	3	xIgbQ8b54UA	Canoeing	Participating_in_sports&Exercise&Recreation	Sports, Exercise, and Recreation	Participating in Sports, Exercise, or Recreation	Boating	292	1	True	True	False	False	0.5888975257230413
video_on	action	14	meg	3	L5YmgB903Zo	Riding bumper cars	Relaxing&Leisure	Socializing, Relaxing, and Leisure	Relaxing and Leisure	Playing games	356	3	True	False	False	True	0.3809323856630726
video_on	action	14	meg	3	GpEwqw99dzM	Fixing bicycle	Vehicles	Household Activities	Vehicles	Vehicle repair and maintenance (by self)	171	11	True	False	False	True	0.1332544446568135
video_on	action	14	meg	3	rYl8mCkj1so	Trimming branches or hedges	Lawn&Garden&Houseplants	Household Activities	Lawn, Garden, and Houseplants	Lawn, garden, and houseplant care	381	9	True	False	False	True	0.4132883144638981
video_on	action	14	meg	3	YxXKIB5iINk	Rope skipping	Participating_in_sports&Exercise&Recreation	Sports, Exercise, and Recreation	Participating in Sports, Exercise, or Recreation	Working out	361	1	True	True	False	False	0.6854992249482166
video_on	action	14	meg	3	GV8pB8JXynE	Doing fencing	Participating_in_sports&Exercise&Recreation	Sports, Exercise, and Recreation	Participating in Sports, Exercise, or Recreation	Fencing	309	1	True	True	True	True	0.3976909968805557
video_on	action	14	meg	3	RNgH965E9w8	Cheerleading	Arts&Entertainment	Socializing, Relaxing, and Leisure	Arts and Entertainment	Dancing	140	2	True	False	False	True	0.4377056677585642
video_on	action	14	meg	3	C0BxGqbaQVE	Fixing the roof	Exterior_maintenance&Repair&Decoration	Household Activities	Exterior Maintenance, Repair, & Decoration	Exterior repair, improvements, & decoration	311	12	True	False	False	True	0.8686926164127726
video_on	action	14	meg	3	8ByKeqjuTrA	Knitting	Housework	Household Activities	Housework	Sewing, repairing, & maintaining textiles	329	6	True	False	False	True	0.4380301779365254
video_on	action	14	meg	3	Y6dSqyX7T9Y	Ironing clothes	Housework	Household Activities	Housework	Laundry	83	6	True	False	False	True	0.9890188774361376
video_on	action	14	meg	3	fP998vWXAIU	Baton twirling	Participating_in_sports&Exercise&Recreation	Sports, Exercise, and Recreation	Participating in Sports, Exercise, or Recreation	Playing sports	277	1	True	True	False	False	0.367182210201463
video_on	action	14	meg	3	SPB3EbfaAQA	Playing saxophone	Arts&Entertainment	Socializing, Relaxing, and Leisure	Arts and Entertainment	Playing musical instruments	109	2	True	False	False	True	0.4686572976306706
video_on	action	14	meg	3	4FjxSdOLfOo	Shoveling snow	Exterior_maintenance&Repair&Decoration	Household Activities	Exterior Maintenance, Repair, & Decoration	Exterior cleaning	183	12	True	False	False	True	0.3922983923912397
video_on	action	14	meg	3	GILTOB7sXA4	Kneeling	Participating_in_sports&Exercise&Recreation	Sports, Exercise, and Recreation	Participating in Sports, Exercise, or Recreation	Working out	328	1	True	True	False	False	0.4409175638493252
video_on	action	14	meg	3	x2AWg_Z5WkA	Walking the dog	Animals&Pets	Household Activities	Animals and Pets	Walking / exercising / playing with animals	221	8	True	False	False	True	0.3126125786184275
video_on	action	14	meg	3	UxDXtJ_uqW8	Starting a campfire	Participating_in_sports&Exercise&Recreation	Sports, Exercise, and Recreation	Participating in Sports, Exercise, or Recreation	Playing sports	153	1	True	True	False	False	0.0050922439049827
video_on	action	14	meg	3	cW2T1lF6bCY	Surfing	Participating_in_sports&Exercise&Recreation	Sports, Exercise, and Recreation	Participating in Sports, Exercise, or Recreation	Participating in water sports	376	1	True	True	False	False	0.3187888374541217
video_on	action	14	meg	3	MNDNcATkNgI	Laying tile	Interior_maintenance&Repair&Decoration	Household Activities	Interior Maintenance, Repair, & Decoration	Interior arrangement, decoration, & repairs	330	7	True	False	False	True	0.4949371884140419
video_on	action	14	meg	3	aCJ1G_cUjvk	Using the monkey bar	Arts&Entertainment	Socializing, Relaxing, and Leisure	Arts and Entertainment	Park activities	383	2	True	False	True	False	0.3437649519955812
video_on	action	14	meg	3	I5gMxszLdxM	Sailing	Participating_in_sports&Exercise&Recreation	Sports, Exercise, and Recreation	Participating in Sports, Exercise, or Recreation	Participating in water sports	240	1	True	True	False	False	0.6791822947243418
video_on	action	14	meg	3	dOKoUC3egOQ	Croquet	Participating_in_sports&Exercise&Recreation	Sports, Exercise, and Recreation	Participating in Sports, Exercise, or Recreation	Playing sports	299	1	True	True	True	True	0.4960722193627589
video_on	action	14	meg	3	rb7yOmv_Sgo	Swimming	Participating_in_sports&Exercise&Recreation	Sports, Exercise, and Recreation	Participating in Sports, Exercise, or Recreation	Participating in water sports	377	1	True	True	True	True	0.3353714585000489
video_on	action	14	meg	3	dGMOqMRo52c	Using the pommel horse	Participating_in_sports&Exercise&Recreation	Sports, Exercise, and Recreation	Participating in Sports, Exercise, or Recreation	Doing gymnastics	114	1	True	True	True	True	0.3916484664250674
video_on	action	14	meg	3	L5nHR8W2PDE	Brushing teeth	Grooming	Personal Care	Grooming	Washing, dressing and grooming oneself	148	4	True	False	False	True	0.4224696884857621
video_on	action	14	meg	3	gPVwfFQCLyk	Preparing pasta	Food&Drink_prep.&Presentation&Clean-up	Eating and drinking Activities	Food & Drink Prep., Presentation, & Clean-up	Food and drink preparation	186	5	True	False	False	True	0.3680681984560578
video_on	action	14	meg	3	i8aPphW8wg0	Hand washing clothes	Housework	Household Activities	Housework	Laundry	232	6	True	False	False	True	0.4341330370989453
video_on	action	14	meg	3	XZsiY9S4WpI	Mixing drinks	Food&Drink_prep.&Presentation&Clean-up	Eating and drinking Activities	Food & Drink Prep., Presentation, & Clean-up	Food and drink preparation	244	5	True	False	False	True	0.3049800992248492
video_on	action	14	meg	3	XTU5hT8XS78	Playing harmonica	Arts&Entertainment	Socializing, Relaxing, and Leisure	Arts and Entertainment	Playing musical instruments	100	2	True	False	False	True	0.3865489776417234
video_on	action	14	meg	3	lW4r_D3upvM	Drinking coffee	Food&Drink_prep.&Presentation&Clean-up	Eating and drinking Activities	Food & Drink Prep., Presentation, & Clean-up	Eating and Drinking	68	5	True	False	False	True	0.3594416613714202
video_on	action	14	meg	3	GIrKOSKuRF4	Doing kickboxing	Participating_in_sports&Exercise&Recreation	Sports, Exercise, and Recreation	Participating in Sports, Exercise, or Recreation	Participating in martial arts	70	1	True	True	True	True	0.3685862072607051
video_on	action	14	meg	3	CVzLDr1nEBU	Putting on makeup	Grooming	Personal Care	Grooming	Washing, dressing and grooming oneself	76	4	True	False	False	True	0.4007598066218634
video_on	action	14	meg	3	AqopmJVsemU	Carving jack-o-lanterns	Interior_maintenance&Repair&Decoration	Household Activities	Interior Maintenance, Repair, & Decoration	Interior arrangement, decoration, & repairs	295	7	True	False	False	True	0.0050946588644364
video_on	action	14	meg	3	2SF9oA4vrko	Tai chi	Participating_in_sports&Exercise&Recreation	Sports, Exercise, and Recreation	Participating in Sports, Exercise, or Recreation	Participating in martial arts	263	1	True	True	False	False	0.4090491549904982
video_on	action	14	meg	3	eUQrVX3_tE0	BMX	Participating_in_sports&Exercise&Recreation	Sports, Exercise, and Recreation	Participating in Sports, Exercise, or Recreation	Biking	274	1	True	True	False	False	0.5294608452059038
video_on	action	14	meg	3	YGnuJ_cCMag	Wrapping presents	Household_management	Household Activities	Household Management	Household & personal organization and planning	179	13	True	False	False	True	0.4242229490582758
video_on	action	14	meg	3	xpuz4Tf9dBk	Javelin throw	Participating_in_sports&Exercise&Recreation	Sports, Exercise, and Recreation	Participating in Sports, Exercise, or Recreation	Playing sports	116	1	True	True	False	False	0.688394459479241
video_on	action	14	meg	3	AQg_CdonkDs	Mooping floor	Housework	Household Activities	Housework	Interior cleaning	335	6	True	False	False	True	0.4738711951185905
video_on	action	14	meg	3	VydODgqcjrI	Breakdancing	Arts&Entertainment	Socializing, Relaxing, and Leisure	Arts and Entertainment	Dancing	236	2	True	False	False	True	0.8579569141047614
video_on	action	14	meg	3	3XEvwDgOOnI	Using the balance beam	Participating_in_sports&Exercise&Recreation	Sports, Exercise, and Recreation	Participating in Sports, Exercise, or Recreation	Doing gymnastics	180	1	True	True	True	True	0.3804016983203837
video_on	action	14	meg	3	8ubGhspS1hw	Arm wrestling	Participating_in_sports&Exercise&Recreation	Sports, Exercise, and Recreation	Participating in Sports, Exercise, or Recreation	Wrestling	271	1	True	True	False	False	0.3643497646171454
video_on	action	14	meg	3	eTTw6ijzp7A	Making an omelette	Food&Drink_prep.&Presentation&Clean-up	Eating and drinking Activities	Food & Drink Prep., Presentation, & Clean-up	Food and drink preparation	334	5	True	False	False	True	0.5543521342960958
video_on	action	14	meg	3	E5E23aCSv3U	Swinging at the playground	Arts&Entertainment	Socializing, Relaxing, and Leisure	Arts and Entertainment	Park activities	378	2	True	False	False	True	0.3627423072221063
video_on	action	14	meg	3	hghT6yVhQJc	Camel ride	Participating_in_sports&Exercise&Recreation	Sports, Exercise, and Recreation	Participating in Sports, Exercise, or Recreation	Playing sports	291	1	True	True	False	False	0.402749733222663
video_on	action	14	meg	3	7wrw19K_g_M	Putting on shoes	Grooming	Personal Care	Grooming	Washing, dressing and grooming oneself	352	4	True	False	False	True	0.3628799599109698
video_on	action	14	meg	3	B_aOSaNWHm0	Plastering	Interior_maintenance&Repair&Decoration	Household Activities	Interior Maintenance, Repair, & Decoration	Interior arrangement, decoration, & repairs	340	7	True	False	False	True	0.3550717922171316
video_on	action	14	meg	3	2zvN1cL1uik	Smoking hookah	Relaxing&Leisure	Socializing, Relaxing, and Leisure	Relaxing and Leisure	Tobacco and drug use	189	3	True	False	False	True	0.378029000645256
video_on	action	14	meg	3	hdUc4uUYh0E	Rafting	Participating_in_sports&Exercise&Recreation	Sports, Exercise, and Recreation	Participating in Sports, Exercise, or Recreation	Boating	353	1	True	True	True	True	0.3736244164474556
video_on	action	14	meg	3	308tGoy23Ec	Mowing the lawn	Lawn&Garden&Houseplants	Household Activities	Lawn, Garden, and Houseplants	Lawn, garden, and houseplant care	218	9	True	False	False	True	0.6435830753607661
video_on	action	14	meg	3	fXllKPFzqcM	Discus throw	Participating_in_sports&Exercise&Recreation	Sports, Exercise, and Recreation	Participating in Sports, Exercise, or Recreation	Playing sports	92	1	True	True	True	True	0.8700791050159751
video_on	action	14	meg	3	GWgo_IwEafg	Getting a piercing	Grooming	Personal Care	Grooming	Washing, dressing and grooming	214	4	True	False	False	True	0.6836155565652007
video_on	action	14	meg	3	VCBZnQyJYpo	Springboard diving	Participating_in_sports&Exercise&Recreation	Sports, Exercise, and Recreation	Participating in Sports, Exercise, or Recreation	Participating in water sports	193	1	True	True	True	True	0.3719073802667481
video_on	action	14	meg	3	Gd99UVq900g	Waterskiing	Participating_in_sports&Exercise&Recreation	Sports, Exercise, and Recreation	Participating in Sports, Exercise, or Recreation	Participating in water sports	386	1	True	True	True	True	0.3562590466644906
video_on	action	14	meg	3	5i1qhhDJUCc	Skateboarding	Participating_in_sports&Exercise&Recreation	Sports, Exercise, and Recreation	Participating in Sports, Exercise, or Recreation	Playing sports	176	1	True	True	True	True	0.4285149357692717
video_on	action	14	meg	3	DO_ZMhKAhs8	Plataform diving	Participating_in_sports&Exercise&Recreation	Sports, Exercise, and Recreation	Participating in Sports, Exercise, or Recreation	Participating in water sports	233	1	True	True	True	True	0.3565944241609031
video_on	action	14	meg	3	MEcLFRruyBg	Playing beach volleyball	Participating_in_sports&Exercise&Recreation	Sports, Exercise, and Recreation	Participating in Sports, Exercise, or Recreation	Playing volleyball	341	1	True	True	True	True	0.2607135903353992
video_on	action	14	meg	3	4lFCpGFA1lk	Longboarding	Participating_in_sports&Exercise&Recreation	Sports, Exercise, and Recreation	Participating in Sports, Exercise, or Recreation	Playing sports	331	1	True	True	True	True	0.3489613410265519
video_on	action	14	meg	3	rm4RRafhtHI	Clean and jerk	Participating_in_sports&Exercise&Recreation	Sports, Exercise, and Recreation	Participating in Sports, Exercise, or Recreation	Weightlifting	84	1	True	True	True	True	0.0053907932688161
video_on	action	14	meg	3	6VNb5H-TQ2o	Kayaking	Participating_in_sports&Exercise&Recreation	Sports, Exercise, and Recreation	Participating in Sports, Exercise, or Recreation	Participating in water sports	254	1	True	True	True	True	0.3730538822737799
video_on	action	14	meg	3	anvzwb0t8zo	Ping-pong	Participating_in_sports&Exercise&Recreation	Sports, Exercise, and Recreation	Participating in Sports, Exercise, or Recreation	Playing racquet sports	119	1	True	True	True	True	0.437466586771734
video_on	action	14	meg	3	8HxC_gj6F_0	Polishing forniture	Housework	Household Activities	Housework	Interior cleaning	156	6	True	False	False	True	0.4143379162223937
video_on	action	14	meg	3	39JUV_juIWM	Raking leaves	Lawn&Garden&Houseplants	Household Activities	Lawn, Garden, and Houseplants	Lawn, garden, and houseplant care	354	9	True	False	False	True	0.349694281225311
video_on	action	14	meg	3	Lvjt2VDPk-w	Playing pool	Relaxing&Leisure	Socializing, Relaxing, and Leisure	Relaxing and Leisure	Playing games	348	3	True	False	False	True	0.7576271212019492
video_on	action	14	meg	3	RXwK6aTi0iY	Disc dog	Animals&Pets	Household Activities	Animals and Pets	Walking / exercising / playing with animals	303	8	True	False	False	True	0.428582856504363
video_on	action	14	meg	3	OrlTW75Fz0U	Playing accordion	Arts&Entertainment	Socializing, Relaxing, and Leisure	Arts and Entertainment	Playing musical instruments	267	2	True	False	False	True	0.624278794995007
video_on	action	14	meg	3	ab0rk0O9MqY	Grooming dog	Animals&Pets	Household Activities	Animals and Pets	Care for animals and pets (not veterinary care)	317	8	True	False	False	True	0.5262181583821075
video_on	action	14	meg	3	cU-FkJc7Jfg	High jump	Participating_in_sports&Exercise&Recreation	Sports, Exercise, and Recreation	Participating in Sports, Exercise, or Recreation	Playing sports	195	1	True	True	True	True	0.005349135218239
video_on	action	14	meg	3	A48Geevotm0	Belly dance	Arts&Entertainment	Socializing, Relaxing, and Leisure	Arts and Entertainment	Dancing	247	2	True	False	False	True	0.3187212185885073
video_on	action	14	meg	3	pXhALO7xmCc	Triple jump	Participating_in_sports&Exercise&Recreation	Sports, Exercise, and Recreation	Participating in Sports, Exercise, or Recreation	Playing sports	155	1	True	True	True	True	0.3985498168403865
video_on	action	14	meg	3	FFcMrvaR3Wg	Bathing dog	Animals&Pets	Household Activities	Animals and Pets	Care for animals and pets (not veterinary care)	90	8	True	False	False	True	0.1109387098376828
video_on	action	14	meg	3	q3XLrKeIeDQ	Zumba	Participating_in_sports&Exercise&Recreation	Sports, Exercise, and Recreation	Participating in Sports, Exercise, or Recreation	Doing aerobics	69	1	True	True	False	False	0.4332654629097305
video_on	action	14	meg	3	HdrIC__zqhY	Playing racquetball	Participating_in_sports&Exercise&Recreation	Sports, Exercise, and Recreation	Participating in Sports, Exercise, or Recreation	Playing racquet sports	253	1	True	True	False	False	0.4174438559657574
video_on	action	14	meg	3	OEYfthgg05s	Tango	Arts&Entertainment	Socializing, Relaxing, and Leisure	Arts and Entertainment	Dancing	73	2	True	False	False	True	0.3295218229322927
video_on	action	14	meg	3	TaoC3Y5J-HQ	Playing flauta	Arts&Entertainment	Socializing, Relaxing, and Leisure	Arts and Entertainment	Playing musical instruments	149	2	True	False	False	True	0.005093753255096
video_on	action	14	meg	3	EdXhqAdMAj4	Tumbling	Participating_in_sports&Exercise&Recreation	Sports, Exercise, and Recreation	Participating in Sports, Exercise, or Recreation	Doing gymnastics	258	1	True	True	True	True	0.392419140365746
video_on	action	14	meg	3	NFUq6eI1Z5U	Archery	Participating_in_sports&Exercise&Recreation	Sports, Exercise, and Recreation	Participating in Sports, Exercise, or Recreation	Playing sports	250	1	True	True	True	True	0.4304450921226816
video_on	action	14	meg	3	H2-rEH9TXR4	Throwing darts	Relaxing&Leisure	Socializing, Relaxing, and Leisure	Relaxing and Leisure	Playing games	380	3	True	False	False	True	0.5860182902997622
video_on	action	14	meg	3	oRC732Y2Ii8	Chopping wood	Interior_maintenance&Repair&Decoration	Household Activities	Interior Maintenance, Repair, & Decoration	Heating and cooling	110	7	True	False	False	True	0.3915313408906513
video_on	action	14	meg	3	Q6NkYe5igOA	Hurling	Participating_in_sports&Exercise&Recreation	Sports, Exercise, and Recreation	Participating in Sports, Exercise, or Recreation	Playing sports	323	1	False	True	False	False	0.0
video_on	action	14	eeg	3	4n-bnYxw2Vc	Braiding hair	Grooming	Personal Care	Grooming	Washing, dressing and grooming oneself	285	4	True	False	False	True	0.5768325999999888
video_on	action	14	eeg	3	5S4y7mV8UHk	Plastering	Interior_maintenance&Repair&Decoration	Household Activities	Interior Maintenance, Repair, & Decoration	Interior arrangement, decoration, & repairs	340	7	True	False	False	True	0.4495100999999977
video_on	action	14	eeg	3	vj077W_h4VM	Calf roping	Participating_in_sports&Exercise&Recreation	Sports, Exercise, and Recreation	Participating in Sports, Exercise, or Recreation	Participating in rodeo competitions	290	1	True	True	True	True	0.4938873999999487
video_on	action	14	eeg	3	ScZ88UBcaRQ	Snatch	Participating_in_sports&Exercise&Recreation	Sports, Exercise, and Recreation	Participating in Sports, Exercise, or Recreation	Weightlifting	79	1	True	True	True	True	0.0050710999998955
video_on	action	14	eeg	3	WYbKssn-s88	Hammer throw	Participating_in_sports&Exercise&Recreation	Sports, Exercise, and Recreation	Participating in Sports, Exercise, or Recreation	Playing sports	224	1	True	True	True	True	0.5523161999999502
video_on	action	14	eeg	3	MsVzSXSssco	Springboard diving	Participating_in_sports&Exercise&Recreation	Sports, Exercise, and Recreation	Participating in Sports, Exercise, or Recreation	Participating in water sports	193	1	True	True	True	True	0.5005029000001286
